,countOBU,countRSU,latitude,longitude,Ax,Ay,Az,datetime,timeFromBeginning
0,1,1,0.0,0.0,0.11938476599999999,0.083251953,0.888183594,54:02.2,00:00.1
1,2,2,0.0,0.0,0.096923828,0.09765625,0.8916015629999999,54:02.2,00:00.1
2,3,3,0.0,0.0,0.104736328,0.10644531300000001,0.9489746090000001,54:02.3,00:00.2
3,4,4,0.0,0.0,0.111816406,0.086669922,0.937988281,54:02.4,00:00.3
4,5,5,0.0,0.0,0.098876953,0.097167969,0.9025878909999999,54:02.5,00:00.4
5,6,6,0.0,0.0,0.094970703,0.08618164099999999,0.889160156,54:02.5,00:00.4
6,7,7,0.0,0.0,0.119873047,0.0703125,0.8984375,54:02.6,00:00.5
7,8,8,0.0,0.0,0.140380859,0.063964844,0.885253906,54:02.6,00:00.5
8,9,9,0.0,0.0,0.124267578,0.100830078,0.9025878909999999,54:02.7,00:00.6
9,10,10,19.286735999999998,-99.14032900000001,0.107910156,0.103027344,0.8942871090000001,54:03.2,00:01.1
10,11,11,19.286735999999998,-99.14032900000001,0.11743164099999999,0.096191406,0.9318847659999999,54:03.2,00:01.1
11,12,12,19.286735999999998,-99.14032900000001,0.09985351599999999,0.09155273400000001,0.9279785159999999,54:03.3,00:01.2
12,13,13,19.286735999999998,-99.14032900000001,0.104003906,0.107910156,0.910644531,54:03.4,00:01.3
13,14,14,19.286735999999998,-99.14032900000001,0.104248047,0.09155273400000001,0.910888672,54:03.5,00:01.4
14,15,15,19.286735999999998,-99.14032900000001,0.11547851599999999,0.08691406300000001,0.8908691409999999,54:03.5,00:01.4
15,16,16,19.286735999999998,-99.14032900000001,0.11328125,0.08227539099999999,0.891113281,54:03.6,00:01.5
16,17,17,19.286735999999998,-99.14032900000001,0.11328125,0.088378906,0.8837890629999999,54:03.6,00:01.5
17,18,18,19.286735999999998,-99.14032900000001,0.11547851599999999,0.094970703,0.919921875,54:03.7,00:01.6
18,19,19,19.28673633,-99.14032733,0.1015625,0.098388672,0.937988281,54:04.2,00:02.1
19,20,20,19.28673633,-99.14032733,0.11108398400000001,0.099609375,0.934082031,54:04.3,00:02.2
20,21,21,19.28673633,-99.14032733,0.120361328,0.08032226599999999,0.905029297,54:04.4,00:02.3
21,22,22,19.28673633,-99.14032733,0.112792969,0.09008789099999999,0.938964844,54:04.4,00:02.3
22,23,23,19.28673633,-99.14032733,0.098144531,0.099121094,0.922607422,54:04.5,00:02.4
23,24,24,19.28673633,-99.14032733,0.123046875,0.10253906300000001,0.9006347659999999,54:04.5,00:02.4
24,25,25,19.28673633,-99.14032733,0.115966797,0.09204101599999999,0.8837890629999999,54:04.6,00:02.5
25,26,26,19.28673633,-99.14032733,0.10644531300000001,0.100097656,0.936279297,54:05.9,00:03.8
26,27,27,19.28673633,-99.14032733,0.123535156,0.092285156,0.905029297,54:05.9,00:03.8
27,28,28,19.2867365,-99.14032617,0.109375,0.08032226599999999,0.9130859379999999,54:05.9,00:03.8
28,29,29,19.2867365,-99.14032617,0.123535156,0.07983398400000001,0.887939453,54:05.9,00:03.8
29,30,30,19.2867365,-99.14032617,0.111816406,0.083496094,0.897216797,54:06.0,00:03.8
30,31,31,19.2867365,-99.14032617,0.108154297,0.09350585900000001,0.934082031,54:06.0,00:03.9
31,32,32,19.2867365,-99.14032617,0.10522460900000001,0.091064453,0.953613281,54:06.0,00:03.9
32,33,33,19.2867365,-99.14032617,0.11328125,0.10571289099999999,0.903564453,54:06.0,00:03.9
33,34,34,19.2867365,-99.14032617,0.099121094,0.098876953,0.9313964840000001,54:06.0,00:03.9
34,35,35,19.2867365,-99.14032617,0.11035156300000001,0.09155273400000001,0.889160156,54:06.1,00:04.0
35,36,36,19.2867365,-99.14032617,0.119873047,0.094238281,0.935546875,54:06.1,00:04.0
36,37,37,19.286737,-99.14032483,0.121582031,0.09741210900000001,0.9313964840000001,54:06.2,00:04.1
37,38,38,19.286737,-99.14032483,0.10766601599999999,0.09472656300000001,0.942626953,54:06.2,00:04.1
38,39,39,19.286737,-99.14032483,0.098144531,0.094238281,0.9326171879999999,54:06.3,00:04.2
39,40,40,19.286737,-99.14032483,0.12475585900000001,0.107910156,0.930419922,54:06.4,00:04.3
40,41,41,19.286737,-99.14032483,0.099121094,0.08813476599999999,0.9306640629999999,54:06.5,00:04.4
41,42,42,19.286737,-99.14032483,0.108154297,0.09277343800000001,0.903076172,54:06.5,00:04.4
42,43,43,19.286737,-99.14032483,0.108886719,0.09155273400000001,0.910888672,54:06.6,00:04.5
43,44,44,19.286737,-99.14032483,0.108154297,0.093261719,0.8818359379999999,54:06.6,00:04.5
44,45,45,19.286737,-99.14032483,0.111328125,0.069091797,0.890625,54:06.7,00:04.6
45,46,46,19.28673767,-99.14032233,0.112060547,0.08691406300000001,0.951660156,54:07.2,00:05.1
46,47,47,19.28673767,-99.14032233,0.10913085900000001,0.082763672,0.915283203,54:07.2,00:05.1
47,48,48,19.28673767,-99.14032233,0.120361328,0.102050781,0.9396972659999999,54:07.3,00:05.2
48,49,49,19.28673767,-99.14032233,0.106201172,0.09985351599999999,0.95703125,54:07.4,00:05.3
49,50,50,19.28673767,-99.14032233,0.120361328,0.09790039099999999,0.936279297,54:07.5,00:05.4
50,51,51,19.28673767,-99.14032233,0.115966797,0.09277343800000001,0.9079589840000001,54:08.7,00:06.6
51,52,52,19.28673767,-99.14032233,0.119873047,0.082763672,0.880126953,54:08.8,00:06.7
52,53,53,19.28673767,-99.14032233,0.12475585900000001,0.08691406300000001,0.8837890629999999,54:08.8,00:06.7
53,54,54,19.28673767,-99.14032233,0.117919922,0.09472656300000001,0.9436035159999999,54:08.8,00:06.7
54,55,55,19.28673817,-99.14032083,0.10253906300000001,0.096923828,0.9345703129999999,54:08.8,00:06.7
55,56,56,19.28673817,-99.14032083,0.11816406300000001,0.08886718800000001,0.9020996090000001,54:08.8,00:06.7
56,57,57,19.28673817,-99.14032083,0.109863281,0.098144531,0.913330078,54:08.8,00:06.7
57,58,58,19.28673817,-99.14032083,0.11425781300000001,0.085449219,0.8850097659999999,54:08.9,00:06.8
58,59,59,19.28673817,-99.14032083,0.11035156300000001,0.102050781,0.9528808590000001,54:08.9,00:06.8
59,60,60,19.28673817,-99.14032083,0.120605469,0.09985351599999999,0.9221191409999999,54:08.9,00:06.8
60,61,61,19.28673817,-99.14032083,0.11694335900000001,0.077392578,0.901123047,54:08.9,00:06.8
61,62,62,19.28673817,-99.14032083,0.114501953,0.09667968800000001,0.9143066409999999,54:08.9,00:06.8
62,63,63,19.28673817,-99.14032083,0.107421875,0.084716797,0.885986328,54:08.9,00:06.8
63,64,64,19.286739,-99.1403185,0.098144531,0.09008789099999999,0.9475097659999999,54:09.2,00:07.1
64,65,65,19.286739,-99.1403185,0.115966797,0.10766601599999999,0.889404297,54:09.4,00:07.3
65,66,66,19.286739,-99.1403185,0.108886719,0.095703125,0.892089844,54:09.4,00:07.3
66,67,67,19.286739,-99.1403185,0.104736328,0.09082031300000001,0.933105469,54:09.4,00:07.3
67,68,68,19.286739,-99.1403185,0.09375,0.0859375,0.9375,54:09.5,00:07.4
68,69,69,19.286739,-99.1403185,0.11499023400000001,0.091796875,0.9240722659999999,54:09.5,00:07.4
69,70,70,19.286739,-99.1403185,0.122558594,0.100097656,0.903564453,54:09.6,00:07.5
70,71,71,19.286739,-99.1403185,0.123779297,0.07983398400000001,0.8942871090000001,54:09.6,00:07.5
71,72,72,19.286739,-99.1403185,0.11352539099999999,0.081298828,0.90234375,54:09.7,00:07.6
72,73,73,19.28673967,-99.14031683,0.124267578,0.092285156,0.882080078,54:10.2,00:08.1
73,74,74,19.28673967,-99.14031683,0.113769531,0.08959960900000001,0.891357422,54:10.2,00:08.1
74,75,75,19.28673967,-99.14031683,0.09985351599999999,0.089355469,0.9235839840000001,54:10.3,00:08.2
75,76,76,19.28673967,-99.14031683,0.11230468800000001,0.077636719,0.9216308590000001,54:11.7,00:09.6
76,77,77,19.28673967,-99.14031683,0.112060547,0.08886718800000001,0.8935546879999999,54:11.8,00:09.7
77,78,78,19.28673967,-99.14031683,0.109375,0.08203125,0.9501953129999999,54:11.8,00:09.7
78,79,79,19.28673967,-99.14031683,0.118408203,0.10522460900000001,0.9318847659999999,54:11.8,00:09.7
79,80,80,19.28673967,-99.14031683,0.098144531,0.09399414099999999,0.9333496090000001,54:11.8,00:09.7
80,81,81,19.28673967,-99.14031683,0.115722656,0.072998047,0.882324219,54:11.8,00:09.7
81,82,82,19.28674033,-99.14031433,0.119140625,0.108154297,0.920654297,54:11.8,00:09.7
82,83,83,19.28674033,-99.14031433,0.107421875,0.09350585900000001,0.895996094,54:11.8,00:09.7
83,84,84,19.28674033,-99.14031433,0.11157226599999999,0.069335938,0.905761719,54:11.9,00:09.7
84,85,85,19.28674033,-99.14031433,0.11547851599999999,0.10058593800000001,0.8935546879999999,54:11.9,00:09.8
85,86,86,19.28674033,-99.14031433,0.109863281,0.09082031300000001,0.9013671879999999,54:11.9,00:09.8
86,87,87,19.28674033,-99.14031433,0.117919922,0.072998047,0.885986328,54:11.9,00:09.8
87,88,88,19.28674033,-99.14031433,0.11938476599999999,0.08374023400000001,0.8896484379999999,54:11.9,00:09.8
88,89,89,19.28674033,-99.14031433,0.106689453,0.10131835900000001,0.925292969,54:11.9,00:09.8
89,90,90,19.28674033,-99.14031433,0.109863281,0.081298828,0.9084472659999999,54:12.0,00:09.9
90,91,91,19.286741,-99.14031133,0.117675781,0.08227539099999999,0.8732910159999999,54:12.2,00:10.1
91,92,92,19.286741,-99.14031133,0.140136719,0.087402344,0.8786621090000001,54:12.2,00:10.1
92,93,93,19.286741,-99.14031133,0.122314453,0.089111328,0.889892578,54:12.3,00:10.2
93,94,94,19.286741,-99.14031133,0.10839843800000001,0.098876953,0.895263672,54:12.4,00:10.3
94,95,95,19.286741,-99.14031133,0.104003906,0.100830078,0.9189453129999999,54:12.5,00:10.4
95,96,96,19.286741,-99.14031133,0.09545898400000001,0.10327148400000001,0.936767578,54:12.5,00:10.4
96,97,97,19.286741,-99.14031133,0.102783203,0.094238281,0.9333496090000001,54:12.6,00:10.5
97,98,98,19.286741,-99.14031133,0.106933594,0.102783203,0.9404296879999999,54:12.6,00:10.5
98,99,99,19.286741,-99.14031133,0.117675781,0.087158203,0.9609375,54:12.7,00:10.6
99,100,100,19.2867415,-99.14030867,0.10571289099999999,0.08496093800000001,0.8984375,54:13.2,00:11.1
100,101,101,19.2867415,-99.14030867,0.12280273400000001,0.09008789099999999,0.912841797,54:14.4,00:12.3
101,102,102,19.2867415,-99.14030867,0.111816406,0.09008789099999999,0.9248046879999999,54:14.4,00:12.3
102,103,103,19.2867415,-99.14030867,0.100341797,0.082763672,0.9111328129999999,54:14.4,00:12.3
103,104,104,19.2867415,-99.14030867,0.117919922,0.07983398400000001,0.8916015629999999,54:14.4,00:12.3
104,105,105,19.2867415,-99.14030867,0.104980469,0.08203125,0.8903808590000001,54:14.5,00:12.4
105,106,106,19.2867415,-99.14030867,0.11352539099999999,0.086425781,0.920654297,54:14.5,00:12.4
106,107,107,19.2867415,-99.14030867,0.124267578,0.080566406,0.903076172,54:14.5,00:12.4
107,108,108,19.2867415,-99.14030867,0.098876953,0.09399414099999999,0.9470214840000001,54:14.5,00:12.4
108,109,109,19.28674183,-99.1403065,0.109863281,0.108886719,0.916015625,54:14.5,00:12.4
109,110,110,19.28674183,-99.1403065,0.09155273400000001,0.12109375,0.934082031,54:14.5,00:12.4
110,111,111,19.28674183,-99.1403065,0.112792969,0.105957031,0.940673828,54:14.6,00:12.5
111,112,112,19.28674183,-99.1403065,0.109863281,0.08984375,0.887939453,54:14.6,00:12.5
112,113,113,19.28674183,-99.1403065,0.11328125,0.09594726599999999,0.952392578,54:14.6,00:12.5
113,114,114,19.28674183,-99.1403065,0.11499023400000001,0.090576172,0.915527344,54:14.6,00:12.5
114,115,115,19.28674183,-99.1403065,0.118408203,0.09985351599999999,0.875,54:14.6,00:12.5
115,116,116,19.28674183,-99.1403065,0.115722656,0.0859375,0.9033203129999999,54:14.6,00:12.5
116,117,117,19.28674183,-99.1403065,0.1171875,0.08422851599999999,0.904296875,54:14.7,00:12.6
117,118,118,19.28674183,-99.14030517,0.119873047,0.10327148400000001,0.887207031,54:15.2,00:13.1
118,119,119,19.28674183,-99.14030517,0.09545898400000001,0.078613281,0.874267578,54:15.2,00:13.1
119,120,120,19.28674183,-99.14030517,0.116455078,0.07592773400000001,0.8830566409999999,54:15.3,00:13.2
120,121,121,19.28674183,-99.14030517,0.105957031,0.079101563,0.883300781,54:15.4,00:13.3
121,122,122,19.28674183,-99.14030517,0.12084960900000001,0.07983398400000001,0.921142578,54:15.5,00:13.4
122,123,123,19.28674183,-99.14030517,0.094238281,0.08764648400000001,0.938720703,54:15.5,00:13.4
123,124,124,19.28674183,-99.14030517,0.106689453,0.08227539099999999,0.9411621090000001,54:15.6,00:13.5
124,125,125,19.28674183,-99.14030517,0.094238281,0.094238281,0.9345703129999999,54:15.6,00:13.5
125,126,126,19.28674183,-99.14030517,0.11547851599999999,0.093017578,0.8786621090000001,54:16.9,00:14.8
126,127,127,19.28674183,-99.14030367,0.116455078,0.077636719,0.911621094,54:16.9,00:14.8
127,128,128,19.28674183,-99.14030367,0.11499023400000001,0.084716797,0.884765625,54:16.9,00:14.8
128,129,129,19.28674183,-99.14030367,0.118408203,0.097167969,0.874511719,54:17.0,00:14.9
129,130,130,19.28674183,-99.14030367,0.112792969,0.08203125,0.930175781,54:17.0,00:14.9
130,131,131,19.28674183,-99.14030367,0.117919922,0.091064453,0.875488281,54:17.0,00:14.9
131,132,132,19.28674183,-99.14030367,0.102050781,0.107421875,0.8947753909999999,54:17.0,00:14.9
132,133,133,19.28674183,-99.14030367,0.110839844,0.083984375,0.940917969,54:17.0,00:14.9
133,134,134,19.28674183,-99.14030367,0.098388672,0.10449218800000001,0.930419922,54:17.0,00:14.9
134,135,135,19.28674183,-99.14030367,0.10546875,0.09472656300000001,0.9375,54:17.0,00:14.9
135,136,136,19.28674183,-99.14030183,0.108154297,0.094238281,0.944580078,54:17.2,00:15.1
136,137,137,19.28674183,-99.14030183,0.116699219,0.096923828,0.954345703,54:17.2,00:15.1
137,138,138,19.28674183,-99.14030183,0.10766601599999999,0.10327148400000001,0.938720703,54:17.5,00:15.4
138,139,139,19.28674183,-99.14030183,0.097167969,0.078613281,0.8942871090000001,54:17.5,00:15.4
139,140,140,19.28674183,-99.14030183,0.110839844,0.102294922,0.8984375,54:17.5,00:15.4
140,141,141,19.28674183,-99.14030183,0.10058593800000001,0.10449218800000001,0.9377441409999999,54:17.5,00:15.4
141,142,142,19.28674183,-99.14030183,0.112060547,0.107910156,0.915527344,54:17.6,00:15.5
142,143,143,19.28674183,-99.14030183,0.11352539099999999,0.08691406300000001,0.8811035159999999,54:17.6,00:15.5
143,144,144,19.28674183,-99.14030183,0.09790039099999999,0.08374023400000001,0.891357422,54:17.7,00:15.6
144,145,145,19.286742,-99.14030067,0.09985351599999999,0.09399414099999999,0.936279297,54:18.2,00:16.1
145,146,146,19.286742,-99.14030067,0.104736328,0.093261719,0.9345703129999999,54:18.2,00:16.1
146,147,147,19.286742,-99.14030067,0.11425781300000001,0.106689453,0.9416503909999999,54:18.3,00:16.2
147,148,148,19.286742,-99.14030067,0.120605469,0.086669922,0.930908203,54:18.4,00:16.3
148,149,149,19.286742,-99.14030067,0.107910156,0.084472656,0.918701172,54:18.5,00:16.4
149,150,150,19.286742,-99.14030067,0.12475585900000001,0.086425781,0.889404297,54:18.5,00:16.4
150,151,151,19.286742,-99.14030067,0.112792969,0.09863281300000001,0.939453125,54:19.8,00:17.7
151,152,152,19.286742,-99.14030067,0.095703125,0.09765625,0.949707031,54:19.8,00:17.7
152,153,153,19.286742,-99.14030067,0.11694335900000001,0.09741210900000001,0.9123535159999999,54:19.9,00:17.7
153,154,154,19.28674167,-99.14030067,0.10180664099999999,0.09375,0.948730469,54:19.9,00:17.8
154,155,155,19.28674167,-99.14030067,0.11352539099999999,0.098144531,0.903076172,54:19.9,00:17.8
155,156,156,19.28674167,-99.14030067,0.11230468800000001,0.08618164099999999,0.895019531,54:19.9,00:17.8
156,157,157,19.28674167,-99.14030067,0.11499023400000001,0.09008789099999999,0.9296875,54:19.9,00:17.8
157,158,158,19.28674167,-99.14030067,0.11328125,0.087890625,0.889892578,54:19.9,00:17.8
158,159,159,19.28674167,-99.14030067,0.120361328,0.091308594,0.8889160159999999,54:19.9,00:17.8
159,160,160,19.28674167,-99.14030067,0.10839843800000001,0.105957031,0.936279297,54:20.0,00:17.9
160,161,161,19.28674167,-99.14030067,0.102294922,0.08984375,0.900390625,54:20.0,00:17.9
161,162,162,19.28674167,-99.14030067,0.112060547,0.097167969,0.940185547,54:20.0,00:17.9
162,163,163,19.28674117,-99.14030067,0.119873047,0.09082031300000001,0.9208984379999999,54:20.2,00:18.1
163,164,164,19.28674117,-99.14030067,0.118652344,0.08032226599999999,0.9091796879999999,54:20.2,00:18.1
164,165,165,19.28674117,-99.14030067,0.10327148400000001,0.096435547,0.928466797,54:20.3,00:18.2
165,166,166,19.28674117,-99.14030067,0.099121094,0.106201172,0.942626953,54:20.4,00:18.3
166,167,167,19.28674117,-99.14030067,0.100341797,0.098876953,0.9299316409999999,54:20.5,00:18.4
167,168,168,19.28674117,-99.14030067,0.095703125,0.09594726599999999,0.9260253909999999,54:20.5,00:18.4
168,169,169,19.28674117,-99.14030067,0.10571289099999999,0.08422851599999999,0.923828125,54:20.6,00:18.5
169,170,170,19.28674117,-99.14030067,0.11157226599999999,0.096923828,0.885498047,54:20.6,00:18.5
170,171,171,19.28674117,-99.14030067,0.121582031,0.082519531,0.9228515629999999,54:20.7,00:18.6
171,172,172,19.28674067,-99.14030017,0.123779297,0.08618164099999999,0.884765625,54:21.2,00:19.1
172,173,173,19.28674067,-99.14030017,0.12109375,0.079345703,0.881347656,54:21.2,00:19.1
173,174,174,19.28674067,-99.14030017,0.11230468800000001,0.08032226599999999,0.901855469,54:21.3,00:19.2
174,175,175,19.28674067,-99.14030017,0.113769531,0.079101563,0.9177246090000001,54:21.4,00:19.3
175,176,176,19.28674067,-99.14030017,0.09472656300000001,0.10375976599999999,0.9274902340000001,54:22.6,00:20.5
176,177,177,19.28674067,-99.14030017,0.1015625,0.095214844,0.9221191409999999,54:22.6,00:20.5
177,178,178,19.28674067,-99.14030017,0.123535156,0.083984375,0.9338378909999999,54:22.6,00:20.5
178,179,179,19.28674067,-99.14030017,0.09863281300000001,0.098144531,0.94140625,54:22.6,00:20.5
179,180,180,19.28674067,-99.14030017,0.130615234,0.093261719,0.9001464840000001,54:22.6,00:20.5
180,181,181,19.28674033,-99.14029983,0.09741210900000001,0.0859375,0.896484375,54:22.6,00:20.5
181,182,182,19.28674033,-99.14029983,0.112792969,0.091308594,0.883300781,54:22.6,00:20.5
182,183,183,19.28674033,-99.14029983,0.122558594,0.08032226599999999,0.8889160159999999,54:22.7,00:20.5
183,184,184,19.28674033,-99.14029983,0.1015625,0.089111328,0.938964844,54:22.7,00:20.6
184,185,185,19.28674033,-99.14029983,0.11425781300000001,0.086425781,0.903564453,54:22.7,00:20.6
185,186,186,19.28674033,-99.14029983,0.094482422,0.09082031300000001,0.887451172,54:22.7,00:20.6
186,187,187,19.28674033,-99.14029983,0.12084960900000001,0.10717773400000001,0.923095703,54:22.7,00:20.6
187,188,188,19.28674033,-99.14029983,0.113769531,0.108154297,0.876220703,54:22.7,00:20.6
188,189,189,19.28674033,-99.14029983,0.094482422,0.09375,0.948730469,54:22.7,00:20.6
189,190,190,19.286739999999998,-99.140299,0.10131835900000001,0.087402344,0.9404296879999999,54:23.2,00:21.1
190,191,191,19.286739999999998,-99.140299,0.100341797,0.085449219,0.920654297,54:23.2,00:21.1
191,192,192,19.286739999999998,-99.140299,0.112792969,0.08984375,0.9196777340000001,54:23.3,00:21.2
192,193,193,19.286739999999998,-99.140299,0.11352539099999999,0.078125,0.9162597659999999,54:23.4,00:21.3
193,194,194,19.286739999999998,-99.140299,0.126708984,0.08496093800000001,0.8825683590000001,54:23.5,00:21.4
194,195,195,19.286739999999998,-99.140299,0.12402343800000001,0.08032226599999999,0.89453125,54:23.5,00:21.4
195,196,196,19.286739999999998,-99.140299,0.12890625,0.074707031,0.929199219,54:23.6,00:21.5
196,197,197,19.286739999999998,-99.140299,0.108642578,0.078857422,0.923828125,54:23.6,00:21.5
197,198,198,19.286739999999998,-99.140299,0.107421875,0.098388672,0.879394531,54:23.7,00:21.6
198,199,199,19.28673967,-99.1402985,0.118652344,0.09155273400000001,0.887939453,54:24.2,00:22.1
199,200,200,19.28673967,-99.1402985,0.110839844,0.084716797,0.889892578,54:24.2,00:22.1
200,201,201,19.28673967,-99.1402985,0.10327148400000001,0.108642578,0.913574219,54:25.5,00:23.4
201,202,202,19.28673967,-99.1402985,0.09863281300000001,0.094482422,0.928466797,54:25.5,00:23.4
202,203,203,19.28673967,-99.1402985,0.11157226599999999,0.09667968800000001,0.896484375,54:25.5,00:23.4
203,204,204,19.28673967,-99.1402985,0.104003906,0.102294922,0.9240722659999999,54:25.5,00:23.4
204,205,205,19.28673967,-99.1402985,0.106933594,0.091308594,0.884033203,54:25.6,00:23.5
205,206,206,19.28673967,-99.1402985,0.110107422,0.08886718800000001,0.9450683590000001,54:25.6,00:23.5
206,207,207,19.28673967,-99.1402985,0.111328125,0.103027344,0.8955078129999999,54:25.6,00:23.5
207,208,208,19.286739,-99.14030033,0.121826172,0.091308594,0.908203125,54:25.6,00:23.5
208,209,209,19.286739,-99.14030033,0.11328125,0.09936523400000001,0.940673828,54:25.6,00:23.5
209,210,210,19.286739,-99.14030033,0.117675781,0.092529297,0.883544922,54:25.7,00:23.6
210,211,211,19.286739,-99.14030033,0.100341797,0.096923828,0.938964844,54:25.7,00:23.6
211,212,212,19.286739,-99.14030033,0.130371094,0.068847656,0.890625,54:25.7,00:23.6
212,213,213,19.286739,-99.14030033,0.106689453,0.106201172,0.899902344,54:25.7,00:23.6
213,214,214,19.286739,-99.14030033,0.118652344,0.104003906,0.881591797,54:25.8,00:23.7
214,215,215,19.286739,-99.14030033,0.10961914099999999,0.091064453,0.9196777340000001,54:25.8,00:23.7
215,216,216,19.286739,-99.14030033,0.111328125,0.096435547,0.927001953,54:25.8,00:23.7
216,217,217,19.28673867,-99.14030083,0.12890625,0.08227539099999999,0.8864746090000001,54:26.2,00:24.1
217,218,218,19.28673867,-99.14030083,0.1328125,0.08886718800000001,0.8759765629999999,54:26.2,00:24.1
218,219,219,19.28673867,-99.14030083,0.10644531300000001,0.09277343800000001,0.904296875,54:26.3,00:24.2
219,220,220,19.28673867,-99.14030083,0.099609375,0.10180664099999999,0.92578125,54:26.4,00:24.3
220,221,221,19.28673867,-99.14030083,0.10913085900000001,0.10180664099999999,0.940673828,54:26.5,00:24.4
221,222,222,19.28673867,-99.14030083,0.099121094,0.10913085900000001,0.927246094,54:26.5,00:24.4
222,223,223,19.28673867,-99.14030083,0.101074219,0.099121094,0.931640625,54:26.6,00:24.5
223,224,224,19.28673867,-99.14030083,0.11230468800000001,0.095214844,0.9274902340000001,54:26.6,00:24.5
224,225,225,19.28673867,-99.14030083,0.094482422,0.09765625,0.9462890629999999,54:26.7,00:24.6
225,226,226,19.28673817,-99.1403035,0.11547851599999999,0.09204101599999999,0.935058594,54:27.9,00:25.8
226,227,227,19.28673817,-99.1403035,0.111816406,0.087890625,0.942138672,54:27.9,00:25.8
227,228,228,19.28673817,-99.1403035,0.10961914099999999,0.09155273400000001,0.912109375,54:27.9,00:25.8
228,229,229,19.28673817,-99.1403035,0.110839844,0.085205078,0.910644531,54:28.0,00:25.9
229,230,230,19.28673817,-99.1403035,0.11425781300000001,0.108886719,0.890625,54:28.0,00:25.9
230,231,231,19.28673817,-99.1403035,0.10522460900000001,0.093017578,0.9143066409999999,54:28.0,00:25.9
231,232,232,19.28673817,-99.1403035,0.122558594,0.08959960900000001,0.8786621090000001,54:28.0,00:25.9
232,233,233,19.28673817,-99.1403035,0.1015625,0.099121094,0.9377441409999999,54:28.0,00:25.9
233,234,234,19.28673817,-99.1403035,0.105957031,0.105957031,0.948730469,54:28.0,00:25.9
234,235,235,19.2867375,-99.14030550000001,0.131835938,0.065429688,0.89453125,54:28.2,00:26.1
235,236,236,19.2867375,-99.14030550000001,0.140380859,0.087402344,0.907714844,54:28.2,00:26.1
236,237,237,19.2867375,-99.14030550000001,0.104980469,0.10375976599999999,0.9169921879999999,54:28.3,00:26.2
237,238,238,19.2867375,-99.14030550000001,0.10180664099999999,0.109375,0.9404296879999999,54:28.4,00:26.3
238,239,239,19.2867375,-99.14030550000001,0.10131835900000001,0.099121094,0.9279785159999999,54:28.5,00:26.4
239,240,240,19.2867375,-99.14030550000001,0.094482422,0.12109375,0.952392578,54:28.5,00:26.4
240,241,241,19.2867375,-99.14030550000001,0.10375976599999999,0.092529297,0.920410156,54:28.6,00:26.5
241,242,242,19.2867375,-99.14030550000001,0.119873047,0.09985351599999999,0.9123535159999999,54:28.6,00:26.5
242,243,243,19.2867375,-99.14030550000001,0.126464844,0.08813476599999999,0.924316406,54:28.7,00:26.6
243,244,244,19.286737,-99.14030817,0.106689453,0.089355469,0.881591797,54:29.2,00:27.1
244,245,245,19.286737,-99.14030817,0.107910156,0.08178710900000001,0.903076172,54:29.2,00:27.1
245,246,246,19.286737,-99.14030817,0.12011718800000001,0.075683594,0.901123047,54:29.3,00:27.2
246,247,247,19.286737,-99.14030817,0.121582031,0.076171875,0.8889160159999999,54:29.4,00:27.3
247,248,248,19.286737,-99.14030817,0.10913085900000001,0.087158203,0.923339844,54:29.5,00:27.4
248,249,249,19.286737,-99.14030817,0.118408203,0.063476563,0.90625,54:29.5,00:27.4
249,250,250,19.286737,-99.14030817,0.11621093800000001,0.088378906,0.951904297,54:29.6,00:27.5
250,251,251,19.286737,-99.14030817,0.118652344,0.083251953,0.8811035159999999,54:31.1,00:29.0
251,252,252,19.286737,-99.14030817,0.10644531300000001,0.096191406,0.945800781,54:31.2,00:29.1
252,253,253,19.2867365,-99.14031,0.12280273400000001,0.096923828,0.9279785159999999,54:31.2,00:29.1
253,254,254,19.2867365,-99.14031,0.09375,0.085205078,0.917236328,54:31.2,00:29.1
254,255,255,19.2867365,-99.14031,0.122314453,0.098876953,0.938232422,54:31.2,00:29.1
255,256,256,19.2867365,-99.14031,0.123535156,0.071044922,0.896972656,54:31.2,00:29.1
256,257,257,19.2867365,-99.14031,0.12280273400000001,0.08374023400000001,0.916503906,54:31.2,00:29.1
257,258,258,19.2867365,-99.14031,0.104248047,0.089355469,0.927734375,54:31.3,00:29.2
258,259,259,19.2867365,-99.14031,0.12280273400000001,0.089111328,0.875488281,54:31.3,00:29.2
259,260,260,19.2867365,-99.14031,0.109863281,0.086669922,0.894042969,54:31.3,00:29.2
260,261,261,19.2867365,-99.14031,0.102783203,0.098144531,0.9255371090000001,54:31.3,00:29.2
261,262,262,19.28673633,-99.1403115,0.12084960900000001,0.073242188,0.9318847659999999,54:31.3,00:29.2
262,263,263,19.28673633,-99.1403115,0.11694335900000001,0.10327148400000001,0.9274902340000001,54:31.3,00:29.2
263,264,264,19.28673633,-99.1403115,0.094482422,0.092285156,0.915527344,54:31.4,00:29.3
264,265,265,19.28673633,-99.1403115,0.110595703,0.09277343800000001,0.895751953,54:31.4,00:29.3
265,266,266,19.28673633,-99.1403115,0.122558594,0.088623047,0.8752441409999999,54:31.5,00:29.4
266,267,267,19.28673633,-99.1403115,0.11328125,0.086425781,0.905761719,54:31.5,00:29.4
267,268,268,19.28673633,-99.1403115,0.115234375,0.08984375,0.9482421879999999,54:31.6,00:29.5
268,269,269,19.28673633,-99.1403115,0.11547851599999999,0.08618164099999999,0.9313964840000001,54:31.6,00:29.5
269,270,270,19.28673633,-99.1403115,0.09741210900000001,0.09594726599999999,0.946533203,54:31.7,00:29.6
270,271,271,19.28673617,-99.14031267,0.10253906300000001,0.107910156,0.9182128909999999,54:32.2,00:30.1
271,272,272,19.28673617,-99.14031267,0.10961914099999999,0.1015625,0.931640625,54:32.2,00:30.1
272,273,273,19.28673617,-99.14031267,0.10839843800000001,0.08227539099999999,0.8708496090000001,54:32.3,00:30.2
273,274,274,19.28673617,-99.14031267,0.110595703,0.107910156,0.904296875,54:32.4,00:30.3
274,275,275,19.28673617,-99.14031267,0.118408203,0.08813476599999999,0.874511719,54:32.5,00:30.4
275,276,276,19.28673617,-99.14031267,0.096435547,0.09863281300000001,0.9338378909999999,54:33.7,00:31.6
276,277,277,19.28673617,-99.14031267,0.113769531,0.086425781,0.9162597659999999,54:33.7,00:31.6
277,278,278,19.28673617,-99.14031267,0.116699219,0.091064453,0.9140625,54:33.8,00:31.6
278,279,279,19.28673617,-99.14031267,0.096191406,0.090332031,0.923095703,54:33.8,00:31.7
279,280,280,19.28673633,-99.1403135,0.12475585900000001,0.081542969,0.8845214840000001,54:33.8,00:31.7
280,281,281,19.28673633,-99.1403135,0.09790039099999999,0.09667968800000001,0.93359375,54:33.8,00:31.7
281,282,282,19.28673633,-99.1403135,0.119140625,0.08569335900000001,0.9372558590000001,54:33.8,00:31.7
282,283,283,19.28673633,-99.1403135,0.094482422,0.096191406,0.899169922,54:33.8,00:31.7
283,284,284,19.28673633,-99.1403135,0.10180664099999999,0.09667968800000001,0.9287109379999999,54:33.8,00:31.7
284,285,285,19.28673633,-99.1403135,0.108642578,0.067871094,0.90234375,54:33.9,00:31.8
285,286,286,19.28673633,-99.1403135,0.120605469,0.08227539099999999,0.9079589840000001,54:33.9,00:31.8
286,287,287,19.28673633,-99.1403135,0.128417969,0.07641601599999999,0.8693847659999999,54:33.9,00:31.8
287,288,288,19.28673633,-99.1403135,0.099609375,0.091308594,0.9462890629999999,54:33.9,00:31.8
288,289,289,19.28673633,-99.14031417,0.119873047,0.08178710900000001,0.917480469,54:34.2,00:32.1
289,290,290,19.28673633,-99.14031417,0.11743164099999999,0.08227539099999999,0.9123535159999999,54:34.2,00:32.1
290,291,291,19.28673633,-99.14031417,0.11230468800000001,0.10766601599999999,0.916503906,54:34.3,00:32.2
291,292,292,19.28673633,-99.14031417,0.118408203,0.098876953,0.936035156,54:34.4,00:32.3
292,293,293,19.28673633,-99.14031417,0.108886719,0.09790039099999999,0.9411621090000001,54:34.5,00:32.4
293,294,294,19.28673633,-99.14031417,0.109375,0.09863281300000001,0.911621094,54:34.5,00:32.4
294,295,295,19.28673633,-99.14031417,0.09741210900000001,0.10375976599999999,0.90625,54:34.6,00:32.5
295,296,296,19.28673633,-99.14031417,0.104980469,0.102050781,0.9013671879999999,54:34.6,00:32.5
296,297,297,19.28673633,-99.14031417,0.11621093800000001,0.066894531,0.893798828,54:34.7,00:32.6
297,298,298,19.28673633,-99.14031483,0.114013672,0.08813476599999999,0.9196777340000001,54:35.2,00:33.1
298,299,299,19.28673633,-99.14031483,0.1015625,0.08569335900000001,0.91015625,54:35.2,00:33.1
299,300,300,19.28673633,-99.14031483,0.11694335900000001,0.07836914099999999,0.9287109379999999,54:35.3,00:33.2
300,301,301,19.28673633,-99.14031483,0.11035156300000001,0.069580078,0.928222656,54:36.6,00:34.5
301,302,302,19.28673633,-99.14031483,0.106933594,0.095214844,0.9208984379999999,54:36.6,00:34.5
302,303,303,19.28673633,-99.14031483,0.119873047,0.095703125,0.944824219,54:36.7,00:34.6
303,304,304,19.28673633,-99.14031483,0.109863281,0.078613281,0.893798828,54:36.7,00:34.6
304,305,305,19.28673633,-99.14031483,0.117919922,0.091064453,0.8884277340000001,54:36.7,00:34.6
305,306,306,19.28673633,-99.14031483,0.09741210900000001,0.09765625,0.9455566409999999,54:36.7,00:34.6
306,307,307,19.28673617,-99.14031517,0.09790039099999999,0.098388672,0.923828125,54:36.8,00:34.7
307,308,308,19.28673617,-99.14031517,0.10449218800000001,0.084716797,0.880371094,54:36.8,00:34.7
308,309,309,19.28673617,-99.14031517,0.11816406300000001,0.09741210900000001,0.885253906,54:36.8,00:34.7
309,310,310,19.28673617,-99.14031517,0.098388672,0.09667968800000001,0.934082031,54:36.8,00:34.7
310,311,311,19.28673617,-99.14031517,0.09985351599999999,0.108886719,0.9274902340000001,54:36.8,00:34.7
311,312,312,19.28673617,-99.14031517,0.118652344,0.078613281,0.9099121090000001,54:36.9,00:34.8
312,313,313,19.28673617,-99.14031517,0.095214844,0.089111328,0.934326172,54:36.9,00:34.8
313,314,314,19.28673617,-99.14031517,0.12084960900000001,0.088378906,0.8889160159999999,54:36.9,00:34.8
314,315,315,19.28673617,-99.14031517,0.11425781300000001,0.081298828,0.8818359379999999,54:36.9,00:34.8
315,316,316,19.286735999999998,-99.14031583,0.112792969,0.08178710900000001,0.8942871090000001,54:37.2,00:35.1
316,317,317,19.286735999999998,-99.14031583,0.122558594,0.077148438,0.888183594,54:37.2,00:35.1
317,318,318,19.286735999999998,-99.14031583,0.11889648400000001,0.097167969,0.8850097659999999,54:37.3,00:35.2
318,319,319,19.286735999999998,-99.14031583,0.12109375,0.09204101599999999,0.9025878909999999,54:37.4,00:35.3
319,320,320,19.286735999999998,-99.14031583,0.119628906,0.09472656300000001,0.9140625,54:37.5,00:35.4
320,321,321,19.286735999999998,-99.14031583,0.110107422,0.09985351599999999,0.922363281,54:37.5,00:35.4
321,322,322,19.286735999999998,-99.14031583,0.10522460900000001,0.10449218800000001,0.9455566409999999,54:37.6,00:35.5
322,323,323,19.286735999999998,-99.14031583,0.100097656,0.103027344,0.938964844,54:37.6,00:35.5
323,324,324,19.286735999999998,-99.14031583,0.10839843800000001,0.10839843800000001,0.9025878909999999,54:37.7,00:35.6
324,325,325,19.28673583,-99.14031700000001,0.11230468800000001,0.09741210900000001,0.885986328,54:38.2,00:36.1
325,326,326,19.28673583,-99.14031700000001,0.108886719,0.104003906,0.9064941409999999,54:39.6,00:37.5
326,327,327,19.28673583,-99.14031700000001,0.11694335900000001,0.079589844,0.940917969,54:39.6,00:37.5
327,328,328,19.28673583,-99.14031700000001,0.09375,0.093017578,0.9216308590000001,54:39.6,00:37.5
328,329,329,19.28673583,-99.14031700000001,0.115966797,0.090332031,0.905761719,54:39.6,00:37.5
329,330,330,19.28673583,-99.14031700000001,0.09765625,0.09936523400000001,0.9255371090000001,54:39.7,00:37.6
330,331,331,19.28673583,-99.14031700000001,0.11499023400000001,0.094238281,0.8896484379999999,54:39.7,00:37.6
331,332,332,19.28673583,-99.14031700000001,0.12475585900000001,0.079589844,0.8825683590000001,54:39.7,00:37.6
332,333,333,19.28673583,-99.14031700000001,0.091064453,0.09936523400000001,0.9423828129999999,54:39.8,00:37.7
333,334,334,19.286735500000002,-99.14031800000001,0.12011718800000001,0.089355469,0.9489746090000001,54:39.8,00:37.7
334,335,335,19.286735500000002,-99.14031800000001,0.10449218800000001,0.108154297,0.92578125,54:39.8,00:37.7
335,336,336,19.286735500000002,-99.14031800000001,0.11328125,0.10131835900000001,0.9228515629999999,54:39.8,00:37.7
336,337,337,19.286735500000002,-99.14031800000001,0.119140625,0.079101563,0.8791503909999999,54:39.8,00:37.7
337,338,338,19.286735500000002,-99.14031800000001,0.11694335900000001,0.08203125,0.9040527340000001,54:39.9,00:37.8
338,339,339,19.286735500000002,-99.14031800000001,0.114746094,0.084716797,0.9416503909999999,54:39.9,00:37.8
339,340,340,19.286735500000002,-99.14031800000001,0.12109375,0.075195313,0.8947753909999999,54:39.9,00:37.8
340,341,341,19.286735500000002,-99.14031800000001,0.111328125,0.098388672,0.934082031,54:39.9,00:37.8
341,342,342,19.286735500000002,-99.14031800000001,0.09765625,0.098144531,0.9416503909999999,54:39.9,00:37.8
342,343,343,19.28673517,-99.14031967,0.102783203,0.10327148400000001,0.944091797,54:40.2,00:38.1
343,344,344,19.28673517,-99.14031967,0.111816406,0.10839843800000001,0.922607422,54:40.2,00:38.1
344,345,345,19.28673517,-99.14031967,0.093261719,0.106201172,0.947753906,54:40.3,00:38.2
345,346,346,19.28673517,-99.14031967,0.106201172,0.08984375,0.919189453,54:40.4,00:38.3
346,347,347,19.28673517,-99.14031967,0.09790039099999999,0.090576172,0.9306640629999999,54:40.5,00:38.4
347,348,348,19.28673517,-99.14031967,0.09741210900000001,0.08618164099999999,0.889160156,54:40.5,00:38.4
348,349,349,19.28673517,-99.14031967,0.10717773400000001,0.088623047,0.896972656,54:40.6,00:38.5
349,350,350,19.28673517,-99.14031967,0.117919922,0.09350585900000001,0.896484375,54:40.6,00:38.5
350,351,351,19.28673517,-99.14031967,0.12768554699999998,0.080566406,0.880859375,54:41.8,00:39.7
351,352,352,19.28673517,-99.140321,0.10717773400000001,0.08203125,0.8830566409999999,54:41.8,00:39.7
352,353,353,19.28673517,-99.140321,0.118408203,0.083984375,0.9140625,54:41.8,00:39.7
353,354,354,19.28673517,-99.140321,0.11816406300000001,0.083496094,0.9111328129999999,54:41.8,00:39.7
354,355,355,19.28673517,-99.140321,0.10131835900000001,0.094482422,0.936035156,54:41.9,00:39.8
355,356,356,19.28673517,-99.140321,0.108642578,0.08618164099999999,0.923828125,54:41.9,00:39.8
356,357,357,19.28673517,-99.140321,0.127197266,0.089355469,0.874267578,54:41.9,00:39.8
357,358,358,19.28673517,-99.140321,0.10913085900000001,0.09375,0.9020996090000001,54:41.9,00:39.8
358,359,359,19.28673517,-99.140321,0.135742188,0.088378906,0.875732422,54:41.9,00:39.8
359,360,360,19.28673517,-99.140321,0.11035156300000001,0.094970703,0.8884277340000001,54:41.9,00:39.8
360,361,361,19.28673483,-99.1403235,0.104248047,0.084716797,0.884033203,54:42.2,00:40.1
361,362,362,19.28673483,-99.1403235,0.11425781300000001,0.09008789099999999,0.8701171879999999,54:42.3,00:40.2
362,363,363,19.28673483,-99.1403235,0.123535156,0.07397460900000001,0.895019531,54:42.3,00:40.2
363,364,364,19.28673483,-99.1403235,0.13989257800000002,0.073486328,0.8947753909999999,54:42.4,00:40.3
364,365,365,19.28673483,-99.1403235,0.116455078,0.0625,0.885498047,54:42.5,00:40.4
365,366,366,19.28673483,-99.1403235,0.113769531,0.088378906,0.942871094,54:42.5,00:40.4
366,367,367,19.28673483,-99.1403235,0.10644531300000001,0.07836914099999999,0.943359375,54:42.6,00:40.5
367,368,368,19.28673483,-99.1403235,0.09594726599999999,0.080078125,0.9240722659999999,54:42.7,00:40.5
368,369,369,19.28673483,-99.1403235,0.09765625,0.106933594,0.903808594,54:42.7,00:40.6
369,370,370,19.28673467,-99.14032517,0.10644531300000001,0.088378906,0.9494628909999999,54:43.2,00:41.1
370,371,371,19.28673467,-99.14032517,0.10913085900000001,0.095214844,0.9333496090000001,54:43.2,00:41.1
371,372,372,19.28673467,-99.14032517,0.11743164099999999,0.09594726599999999,0.927001953,54:43.3,00:41.2
372,373,373,19.28673467,-99.14032517,0.102294922,0.083007813,0.9208984379999999,54:43.4,00:41.3
373,374,374,19.28673467,-99.14032517,0.114746094,0.094238281,0.9025878909999999,54:43.5,00:41.4
374,375,375,19.28673467,-99.14032517,0.136962891,0.086669922,0.895019531,54:43.5,00:41.4
0,1,1,0.0,0.0,0.118408203,0.0859375,0.8923339840000001,57:01.2,00:00.0
1,2,2,0.0,0.0,0.123779297,0.079589844,0.9020996090000001,57:01.2,00:00.1
2,3,3,0.0,0.0,0.11547851599999999,0.082763672,0.924560547,57:01.3,00:00.1
3,4,4,0.0,0.0,0.109863281,0.088623047,0.938232422,57:01.4,00:00.2
4,5,5,0.0,0.0,0.114501953,0.086669922,0.928955078,57:01.5,00:00.3
5,6,6,0.0,0.0,0.11499023400000001,0.08178710900000001,0.8850097659999999,57:01.5,00:00.3
6,7,7,0.0,0.0,0.106933594,0.091064453,0.906738281,57:01.6,00:00.4
7,8,8,0.0,0.0,0.12329101599999999,0.09082031300000001,0.91015625,57:01.6,00:00.5
8,9,9,0.0,0.0,0.109863281,0.093261719,0.886230469,57:01.7,00:00.5
9,10,10,19.28670233,-99.1403865,0.111328125,0.10449218800000001,0.895996094,57:02.2,00:01.0
10,11,11,19.28670233,-99.1403865,0.10327148400000001,0.09936523400000001,0.924560547,57:02.2,00:01.0
11,12,12,19.28670233,-99.1403865,0.10546875,0.087158203,0.9020996090000001,57:02.3,00:01.1
12,13,13,19.28670233,-99.1403865,0.108886719,0.08178710900000001,0.869628906,57:02.4,00:01.2
13,14,14,19.28670233,-99.1403865,0.105957031,0.092529297,0.905517578,57:02.5,00:01.3
14,15,15,19.28670233,-99.1403865,0.09667968800000001,0.09277343800000001,0.934326172,57:02.5,00:01.3
15,16,16,19.28670233,-99.1403865,0.10913085900000001,0.09204101599999999,0.943359375,57:02.6,00:01.4
16,17,17,19.28670233,-99.1403865,0.10180664099999999,0.09375,0.932373047,57:02.6,00:01.4
17,18,18,19.28670233,-99.1403865,0.12207031300000001,0.100097656,0.922363281,57:02.7,00:01.5
18,19,19,19.28670317,-99.14038567,0.104003906,0.09863281300000001,0.944824219,57:03.2,00:02.0
19,20,20,19.28670317,-99.14038567,0.10253906300000001,0.09204101599999999,0.942871094,57:03.2,00:02.0
20,21,21,19.28670317,-99.14038567,0.11816406300000001,0.10644531300000001,0.899169922,57:03.3,00:02.1
21,22,22,19.28670317,-99.14038567,0.133300781,0.09008789099999999,0.8850097659999999,57:03.4,00:02.2
22,23,23,19.28670317,-99.14038567,0.122558594,0.08813476599999999,0.90234375,57:03.5,00:02.3
23,24,24,19.28670317,-99.14038567,0.101074219,0.104003906,0.941894531,57:03.5,00:02.3
24,25,25,19.28670317,-99.14038567,0.10253906300000001,0.10253906300000001,0.9416503909999999,57:03.6,00:02.4
25,26,26,19.28670317,-99.14038567,0.12207031300000001,0.082519531,0.904296875,57:04.9,00:03.7
26,27,27,19.28670317,-99.14038567,0.10180664099999999,0.088378906,0.929199219,57:04.9,00:03.7
27,28,28,19.28670417,-99.1403845,0.123046875,0.07421875,0.8916015629999999,57:04.9,00:03.7
28,29,29,19.28670417,-99.1403845,0.122314453,0.094238281,0.9372558590000001,57:04.9,00:03.7
29,30,30,19.28670417,-99.1403845,0.104980469,0.079589844,0.941894531,57:04.9,00:03.7
30,31,31,19.28670417,-99.1403845,0.139160156,0.06616210900000001,0.868408203,57:04.9,00:03.8
31,32,32,19.28670417,-99.1403845,0.09741210900000001,0.08691406300000001,0.942871094,57:05.0,00:03.8
32,33,33,19.28670417,-99.1403845,0.111328125,0.08203125,0.905517578,57:05.0,00:03.8
33,34,34,19.28670417,-99.1403845,0.12280273400000001,0.085449219,0.893798828,57:05.0,00:03.8
34,35,35,19.28670417,-99.1403845,0.11303710900000001,0.084716797,0.875488281,57:05.0,00:03.8
35,36,36,19.28670417,-99.1403845,0.115966797,0.083496094,0.938964844,57:05.0,00:03.8
36,37,37,19.28670483,-99.140383,0.08227539099999999,0.08032226599999999,0.945800781,57:05.2,00:04.0
37,38,38,19.28670483,-99.140383,0.10522460900000001,0.09082031300000001,0.918457031,57:05.2,00:04.1
38,39,39,19.28670483,-99.140383,0.125244141,0.087890625,0.887451172,57:05.3,00:04.1
39,40,40,19.28670483,-99.140383,0.123779297,0.08422851599999999,0.8955078129999999,57:05.4,00:04.2
40,41,41,19.28670483,-99.140383,0.11621093800000001,0.0859375,0.932373047,57:05.5,00:04.3
41,42,42,19.28670483,-99.140383,0.108886719,0.09008789099999999,0.9396972659999999,57:05.5,00:04.4
42,43,43,19.28670483,-99.140383,0.11938476599999999,0.080566406,0.9560546879999999,57:05.6,00:04.4
43,44,44,19.28670483,-99.140383,0.096923828,0.09594726599999999,0.903076172,57:05.6,00:04.5
44,45,45,19.28670483,-99.140383,0.11816406300000001,0.08618164099999999,0.919921875,57:05.7,00:04.5
45,46,46,19.286704999999998,-99.14038267,0.11328125,0.051025390999999996,0.882324219,57:06.2,00:05.0
46,47,47,19.286704999999998,-99.14038267,0.105957031,0.069824219,0.907714844,57:06.2,00:05.1
47,48,48,19.286704999999998,-99.14038267,0.110839844,0.058837890999999996,0.91796875,57:06.3,00:05.1
48,49,49,19.286704999999998,-99.14038267,0.106933594,0.04638671900000001,0.9392089840000001,57:06.4,00:05.2
49,50,50,19.286704999999998,-99.14038267,0.11547851599999999,0.038085938,0.944091797,57:06.5,00:05.3
50,51,51,19.286704999999998,-99.14038267,0.1484375,-0.001220703,0.9509277340000001,57:07.8,00:06.6
51,52,52,19.286704999999998,-99.14038267,0.09277343800000001,-0.0078125,0.9645996090000001,57:07.9,00:06.7
52,53,53,19.286704999999998,-99.14038267,0.106689453,-0.040527344,0.939941406,57:07.9,00:06.7
53,54,54,19.286704999999998,-99.14038267,0.11499023400000001,-0.05029296900000001,0.895751953,57:07.9,00:06.7
54,55,55,19.2867025,-99.14038267,0.098876953,-0.07006835900000001,0.895996094,57:07.9,00:06.7
55,56,56,19.2867025,-99.14038267,0.11743164099999999,-0.052978515999999996,0.92578125,57:07.9,00:06.7
56,57,57,19.2867025,-99.14038267,0.127197266,-0.0034179690000000003,0.967529297,57:07.9,00:06.7
57,58,58,19.2867025,-99.14038267,0.126953125,-0.018066406,0.9313964840000001,57:08.0,00:06.8
58,59,59,19.2867025,-99.14038267,0.10766601599999999,-0.036132813,0.9533691409999999,57:08.0,00:06.8
59,60,60,19.2867025,-99.14038267,0.138916016,-0.023193359,0.894042969,57:08.0,00:06.8
60,61,61,19.2867025,-99.14038267,0.121582031,-0.019775391,0.915527344,57:08.0,00:06.8
61,62,62,19.2867025,-99.14038267,0.133789063,-0.07250976599999999,0.872314453,57:08.0,00:06.8
62,63,63,19.2867025,-99.14038267,0.09594726599999999,-0.020507813,0.9689941409999999,57:08.0,00:06.8
63,64,64,19.286692499999997,-99.14038383,0.13159179699999998,-0.029785156,0.9064941409999999,57:08.2,00:07.0
64,65,65,19.286692499999997,-99.14038383,0.09545898400000001,-0.0703125,0.876464844,57:08.3,00:07.1
65,66,66,19.286692499999997,-99.14038383,0.091796875,-0.032470703,0.9509277340000001,57:08.3,00:07.1
66,67,67,19.286692499999997,-99.14038383,0.05078125,-0.111328125,0.9345703129999999,57:08.4,00:07.2
67,68,68,19.286692499999997,-99.14038383,0.07641601599999999,-0.029541016,0.9638671879999999,57:08.5,00:07.3
68,69,69,19.286692499999997,-99.14038383,0.136962891,-0.060791015999999996,0.9345703129999999,57:08.5,00:07.4
69,70,70,19.286692499999997,-99.14038383,0.138427734,-0.007080078,0.900878906,57:08.6,00:07.4
70,71,71,19.286692499999997,-99.14038383,0.137207031,-0.028320313,0.8596191409999999,57:08.7,00:07.5
71,72,72,19.286692499999997,-99.14038383,0.12622070300000002,0.038330078,0.906738281,57:08.7,00:07.5
72,73,73,19.28667283,-99.14038533,0.12084960900000001,0.001220703,0.887451172,57:09.2,00:08.0
73,74,74,19.28667283,-99.14038533,0.107910156,0.033935547,0.8798828129999999,57:09.3,00:08.1
74,75,75,19.28667283,-99.14038533,0.053955078,0.079345703,0.936035156,57:09.3,00:08.1
75,76,76,19.28667283,-99.14038533,0.024658202999999997,0.085449219,0.951660156,57:10.5,00:09.3
76,77,77,19.28667283,-99.14038533,0.015625,0.063232422,0.875732422,57:10.5,00:09.3
77,78,78,19.28667283,-99.14038533,0.11352539099999999,0.09472656300000001,0.8884277340000001,57:10.6,00:09.4
78,79,79,19.28667283,-99.14038533,0.11328125,0.126953125,0.906982422,57:10.6,00:09.4
79,80,80,19.28667283,-99.14038533,0.12475585900000001,0.138427734,0.9064941409999999,57:10.6,00:09.4
80,81,81,19.28667283,-99.14038533,0.100341797,0.139160156,0.9221191409999999,57:10.6,00:09.4
81,82,82,19.286648,-99.14038583,0.105957031,0.10546875,0.885498047,57:10.6,00:09.4
82,83,83,19.286648,-99.14038583,0.09008789099999999,0.080810547,0.930908203,57:10.7,00:09.5
83,84,84,19.286648,-99.14038583,0.108154297,0.096191406,0.9162597659999999,57:10.7,00:09.5
84,85,85,19.286648,-99.14038583,0.16137695300000002,0.08691406300000001,0.8654785159999999,57:10.7,00:09.5
85,86,86,19.286648,-99.14038583,0.136962891,0.115234375,0.908691406,57:10.7,00:09.5
86,87,87,19.286648,-99.14038583,0.148193359,0.107910156,0.923339844,57:10.7,00:09.6
87,88,88,19.286648,-99.14038583,0.15234375,0.10717773400000001,0.9619140629999999,57:10.8,00:09.6
88,89,89,19.286648,-99.14038583,0.153808594,0.12475585900000001,0.931640625,57:10.8,00:09.6
89,90,90,19.286648,-99.14038583,0.145019531,0.097167969,0.9650878909999999,57:10.8,00:09.6
90,91,91,19.2866225,-99.1403875,0.131347656,0.132324219,0.9802246090000001,57:11.2,00:10.0
91,92,92,19.2866225,-99.1403875,0.150146484,0.107421875,0.960205078,57:11.3,00:10.1
92,93,93,19.2866225,-99.1403875,0.11816406300000001,0.123779297,0.9267578129999999,57:11.3,00:10.1
93,94,94,19.2866225,-99.1403875,0.104736328,0.10375976599999999,0.871826172,57:11.4,00:10.2
94,95,95,19.2866225,-99.1403875,0.07421875,0.0859375,0.8986816409999999,57:11.5,00:10.3
95,96,96,19.2866225,-99.1403875,0.034667969,0.077392578,0.906982422,57:11.6,00:10.4
96,97,97,19.2866225,-99.1403875,0.090576172,0.10375976599999999,0.9592285159999999,57:11.6,00:10.4
97,98,98,19.2866225,-99.1403875,0.098144531,0.108154297,0.9482421879999999,57:11.7,00:10.5
98,99,99,19.2866225,-99.1403875,0.13549804699999998,0.10766601599999999,0.8720703129999999,57:11.7,00:10.5
99,100,100,19.28659783,-99.14039033,0.155761719,0.042236328,0.918701172,57:12.2,00:11.0
100,101,101,19.28659783,-99.14039033,0.15161132800000002,0.035888672,0.963623047,57:13.4,00:12.2
101,102,102,19.28659783,-99.14039033,0.16284179699999998,0.046142578,0.9592285159999999,57:13.4,00:12.2
102,103,103,19.28659783,-99.14039033,0.134765625,0.030761719,0.9631347659999999,57:13.4,00:12.2
103,104,104,19.28659783,-99.14039033,0.132568359,0.055908203,0.9787597659999999,57:13.4,00:12.2
104,105,105,19.28659783,-99.14039033,0.091308594,0.076904297,0.9814453129999999,57:13.5,00:12.3
105,106,106,19.28659783,-99.14039033,0.086425781,0.052490234000000004,0.891845703,57:13.5,00:12.3
106,107,107,19.28659783,-99.14039033,0.078613281,0.069335938,0.9287109379999999,57:13.5,00:12.3
107,108,108,19.28659783,-99.14039033,0.074951172,0.031982422,0.903808594,57:13.5,00:12.3
108,109,109,19.286572,-99.14039100000001,0.080810547,0.052734375,0.884765625,57:13.5,00:12.3
109,110,110,19.286572,-99.14039100000001,0.05908203099999999,0.021972656,0.835205078,57:13.5,00:12.3
110,111,111,19.286572,-99.14039100000001,0.049560547,0.073242188,0.893066406,57:13.6,00:12.4
111,112,112,19.286572,-99.14039100000001,0.043701172,0.062988281,0.9375,57:13.6,00:12.4
112,113,113,19.286572,-99.14039100000001,0.103027344,0.072265625,0.871826172,57:13.6,00:12.4
113,114,114,19.286572,-99.14039100000001,0.116455078,0.063476563,0.895996094,57:13.6,00:12.4
114,115,115,19.286572,-99.14039100000001,0.11694335900000001,0.048583984000000004,0.9084472659999999,57:13.6,00:12.4
115,116,116,19.286572,-99.14039100000001,0.08569335900000001,0.055419922,0.906738281,57:13.7,00:12.5
116,117,117,19.286572,-99.14039100000001,0.133056641,0.070800781,0.979003906,57:13.7,00:12.5
117,118,118,19.28654017,-99.14039367,0.10571289099999999,0.126708984,0.895263672,57:14.2,00:13.0
118,119,119,19.28654017,-99.14039367,0.10961914099999999,0.09765625,0.862792969,57:14.3,00:13.1
119,120,120,19.28654017,-99.14039367,0.08959960900000001,0.065429688,0.881591797,57:14.3,00:13.1
120,121,121,19.28654017,-99.14039367,0.124511719,0.069580078,0.919189453,57:14.4,00:13.2
121,122,122,19.28654017,-99.14039367,0.093261719,0.155273438,0.949707031,57:14.5,00:13.3
122,123,123,19.28654017,-99.14039367,0.13403320300000002,0.114746094,0.861816406,57:14.5,00:13.4
123,124,124,19.28654017,-99.14039367,0.110107422,0.0859375,0.862060547,57:14.6,00:13.4
124,125,125,19.28654017,-99.14039367,0.131347656,0.08032226599999999,0.829589844,57:14.7,00:13.5
125,126,126,19.28654017,-99.14039367,0.18237304699999998,0.12963867199999998,0.8701171879999999,57:15.9,00:14.7
126,127,127,19.2865095,-99.14039383,0.191894531,0.10766601599999999,0.857421875,57:16.0,00:14.8
127,128,128,19.2865095,-99.14039383,0.16918945300000002,0.128662109,0.881347656,57:16.0,00:14.8
128,129,129,19.2865095,-99.14039383,0.138916016,0.086425781,0.881591797,57:16.0,00:14.8
129,130,130,19.2865095,-99.14039383,0.14379882800000002,0.092529297,0.9157714840000001,57:16.0,00:14.8
130,131,131,19.2865095,-99.14039383,0.12402343800000001,0.054443359000000004,0.8669433590000001,57:16.0,00:14.8
131,132,132,19.2865095,-99.14039383,0.143066406,0.094970703,0.8903808590000001,57:16.1,00:14.9
132,133,133,19.2865095,-99.14039383,0.122558594,0.087402344,0.9201660159999999,57:16.1,00:14.9
133,134,134,19.2865095,-99.14039383,0.116699219,0.132568359,0.890625,57:16.1,00:14.9
134,135,135,19.2865095,-99.14039383,0.12207031300000001,0.11328125,0.876464844,57:16.1,00:14.9
135,136,136,19.28648017,-99.140394,0.049804688,0.113769531,0.942871094,57:16.2,00:15.0
136,137,137,19.28648017,-99.140394,0.051757813,0.136230469,0.943359375,57:16.3,00:15.1
137,138,138,19.28648017,-99.140394,0.09667968800000001,0.053955078,0.9802246090000001,57:16.3,00:15.1
138,139,139,19.28648017,-99.140394,0.063964844,0.08569335900000001,0.8688964840000001,57:16.4,00:15.2
139,140,140,19.28648017,-99.140394,0.15698242199999998,0.095214844,0.8518066409999999,57:16.5,00:15.3
140,141,141,19.28648017,-99.140394,0.168457031,0.035644531,0.923339844,57:16.5,00:15.4
141,142,142,19.28648017,-99.140394,0.16674804699999998,0.024902344,0.8798828129999999,57:16.6,00:15.4
142,143,143,19.28648017,-99.140394,0.131347656,0.044677734000000004,0.947753906,57:16.7,00:15.5
143,144,144,19.28648017,-99.140394,0.147460938,0.108642578,0.896484375,57:16.7,00:15.5
144,145,145,19.28645283,-99.14039483,0.150878906,-0.015136719,0.893066406,57:17.2,00:16.0
145,146,146,19.28645283,-99.14039483,0.150390625,0.017578125,0.8513183590000001,57:17.3,00:16.1
146,147,147,19.28645283,-99.14039483,0.114013672,0.06469726599999999,0.905029297,57:17.3,00:16.1
147,148,148,19.28645283,-99.14039483,0.096923828,0.096435547,0.9196777340000001,57:17.4,00:16.2
148,149,149,19.28645283,-99.14039483,0.12329101599999999,0.130615234,0.908691406,57:17.5,00:16.3
149,150,150,19.28645283,-99.14039483,0.112060547,0.045654297,0.9216308590000001,57:17.5,00:16.4
150,151,151,19.28645283,-99.14039483,0.106689453,0.011962891000000002,0.91015625,57:18.7,00:17.5
151,152,152,19.28645283,-99.14039483,0.095214844,0.035888672,0.9528808590000001,57:18.7,00:17.5
152,153,153,19.28645283,-99.14039483,0.11035156300000001,0.031982422,0.9025878909999999,57:18.7,00:17.5
153,154,154,19.28642283,-99.14039633,0.09545898400000001,0.040527344,0.944580078,57:18.8,00:17.6
154,155,155,19.28642283,-99.14039633,0.085205078,0.032714844,0.906738281,57:18.8,00:17.6
155,156,156,19.28642283,-99.14039633,0.097167969,0.037841797,0.9338378909999999,57:18.8,00:17.6
156,157,157,19.28642283,-99.14039633,0.099609375,0.05126953099999999,0.958251953,57:18.8,00:17.6
157,158,158,19.28642283,-99.14039633,0.125488281,0.024902344,0.862792969,57:18.8,00:17.6
158,159,159,19.28642283,-99.14039633,0.08422851599999999,0.030273438,0.8947753909999999,57:18.8,00:17.6
159,160,160,19.28642283,-99.14039633,0.087890625,0.020019531,0.9494628909999999,57:18.9,00:17.7
160,161,161,19.28642283,-99.14039633,0.15502929699999998,0.071777344,0.8903808590000001,57:18.9,00:17.7
161,162,162,19.28642283,-99.14039633,0.138671875,0.05126953099999999,0.9196777340000001,57:18.9,00:17.7
162,163,163,19.28638917,-99.14039783,0.098388672,0.069091797,0.909423828,57:19.2,00:18.0
163,164,164,19.28638917,-99.14039783,0.129150391,0.031738281,0.8649902340000001,57:19.3,00:18.1
164,165,165,19.28638917,-99.14039783,0.135253906,0.04248046900000001,0.8747558590000001,57:19.3,00:18.1
165,166,166,19.28638917,-99.14039783,0.122314453,0.039794922,0.9375,57:19.4,00:18.2
166,167,167,19.28638917,-99.14039783,0.17895507800000002,0.024902344,0.9001464840000001,57:19.5,00:18.3
167,168,168,19.28638917,-99.14039783,0.11621093800000001,0.059326172,0.9372558590000001,57:19.5,00:18.4
168,169,169,19.28638917,-99.14039783,0.131103516,0.09936523400000001,0.8771972659999999,57:19.6,00:18.4
169,170,170,19.28638917,-99.14039783,0.120605469,0.0703125,0.9006347659999999,57:19.7,00:18.5
170,171,171,19.28638917,-99.14039783,0.080566406,0.079345703,1.007568359,57:19.7,00:18.5
171,172,172,19.28635033,-99.14040067,0.156005859,0.073486328,0.963623047,57:20.2,00:19.0
172,173,173,19.28635033,-99.14040067,0.08813476599999999,0.031982422,0.98046875,57:20.3,00:19.1
173,174,174,19.28635033,-99.14040067,0.143554688,0.10546875,0.9104003909999999,57:20.3,00:19.1
174,175,175,19.28635033,-99.14040067,0.12768554699999998,0.106201172,0.917236328,57:20.4,00:19.2
175,176,176,19.28635033,-99.14040067,0.187011719,0.08374023400000001,0.929199219,57:21.7,00:20.5
176,177,177,19.28635033,-99.14040067,0.152832031,0.111816406,0.896972656,57:21.7,00:20.5
177,178,178,19.28635033,-99.14040067,0.196777344,0.05419921900000001,0.913330078,57:21.7,00:20.6
178,179,179,19.28635033,-99.14040067,0.166259766,0.108154297,0.9514160159999999,57:21.8,00:20.6
179,180,180,19.28635033,-99.14040067,0.09277343800000001,0.08813476599999999,0.897949219,57:21.8,00:20.6
180,181,181,19.28630883,-99.1404045,0.07836914099999999,0.08032226599999999,0.902832031,57:21.8,00:20.6
181,182,182,19.28630883,-99.1404045,0.07250976599999999,0.104736328,0.950439453,57:21.8,00:20.6
182,183,183,19.28630883,-99.1404045,0.1328125,0.085449219,0.94140625,57:21.8,00:20.6
183,184,184,19.28630883,-99.1404045,0.13354492199999998,0.096435547,0.8283691409999999,57:21.9,00:20.7
184,185,185,19.28630883,-99.1404045,0.11547851599999999,0.079345703,0.948486328,57:21.9,00:20.7
185,186,186,19.28630883,-99.1404045,0.1171875,0.1171875,0.9221191409999999,57:21.9,00:20.7
186,187,187,19.28630883,-99.1404045,0.116455078,0.1015625,0.9377441409999999,57:21.9,00:20.7
187,188,188,19.28630883,-99.1404045,0.083007813,0.108642578,0.9470214840000001,57:21.9,00:20.7
188,189,189,19.28630883,-99.1404045,0.100097656,0.0625,0.9072265629999999,57:22.0,00:20.8
189,190,190,19.286266,-99.1404105,0.11499023400000001,0.067626953,0.8688964840000001,57:22.2,00:21.0
190,191,191,19.286266,-99.1404105,0.137695313,0.104980469,0.846435547,57:22.3,00:21.1
191,192,192,19.286266,-99.1404105,0.089111328,0.10131835900000001,0.8864746090000001,57:22.3,00:21.1
192,193,193,19.286266,-99.1404105,0.13671875,0.063720703,0.883300781,57:22.4,00:21.2
193,194,194,19.286266,-99.1404105,0.09399414099999999,0.08374023400000001,0.949951172,57:22.5,00:21.3
194,195,195,19.286266,-99.1404105,0.07055664099999999,0.138183594,0.906738281,57:22.6,00:21.4
195,196,196,19.286266,-99.1404105,0.115722656,0.122558594,0.924560547,57:22.6,00:21.4
196,197,197,19.286266,-99.1404105,0.09472656300000001,0.11303710900000001,0.907714844,57:22.7,00:21.5
197,198,198,19.286266,-99.1404105,0.180175781,0.104736328,0.952392578,57:22.7,00:21.5
198,199,199,19.28622483,-99.140416,0.131835938,0.127197266,0.9560546879999999,57:23.2,00:22.0
199,200,200,19.28622483,-99.140416,0.11694335900000001,0.077636719,0.8947753909999999,57:23.3,00:22.1
200,201,201,19.28622483,-99.140416,0.179443359,0.080566406,0.895996094,57:24.5,00:23.3
201,202,202,19.28622483,-99.140416,0.152832031,0.093261719,0.8942871090000001,57:24.5,00:23.3
202,203,203,19.28622483,-99.140416,0.135742188,0.100097656,0.961669922,57:24.5,00:23.3
203,204,204,19.28622483,-99.140416,0.138916016,0.0546875,0.9157714840000001,57:24.5,00:23.4
204,205,205,19.28622483,-99.140416,0.134521484,0.102050781,0.9580078129999999,57:24.6,00:23.4
205,206,206,19.28622483,-99.140416,0.14721679699999998,0.094238281,0.872558594,57:24.6,00:23.4
206,207,207,19.28622483,-99.140416,0.137695313,0.099121094,0.939941406,57:24.6,00:23.4
207,208,208,19.28618383,-99.140423,0.12817382800000002,0.103027344,0.920654297,57:24.6,00:23.4
208,209,209,19.28618383,-99.140423,0.120361328,0.103515625,0.9375,57:24.6,00:23.4
209,210,210,19.28618383,-99.140423,0.09204101599999999,0.074707031,0.8525390629999999,57:24.6,00:23.4
210,211,211,19.28618383,-99.140423,0.137695313,0.104736328,0.932861328,57:24.6,00:23.5
211,212,212,19.28618383,-99.140423,0.049072265999999996,0.10546875,0.955810547,57:24.7,00:23.5
212,213,213,19.28618383,-99.140423,0.063232422,0.08984375,0.9384765629999999,57:24.7,00:23.5
213,214,214,19.28618383,-99.140423,0.08032226599999999,0.122558594,0.921875,57:24.7,00:23.5
214,215,215,19.28618383,-99.140423,0.07202148400000001,0.082763672,0.902832031,57:24.7,00:23.5
215,216,216,19.28618383,-99.140423,0.099609375,0.067382813,0.876464844,57:24.7,00:23.5
216,217,217,19.286145,-99.14043017,0.18090820300000002,0.09765625,0.833984375,57:25.2,00:24.0
217,218,218,19.286145,-99.14043017,0.105957031,0.08813476599999999,0.888183594,57:25.3,00:24.1
218,219,219,19.286145,-99.14043017,0.14184570300000002,0.12475585900000001,0.9326171879999999,57:25.3,00:24.2
219,220,220,19.286145,-99.14043017,0.11352539099999999,0.09008789099999999,0.9587402340000001,57:25.4,00:24.2
220,221,221,19.286145,-99.14043017,0.15112304699999998,0.075439453,0.940673828,57:25.5,00:24.3
221,222,222,19.286145,-99.14043017,0.087890625,0.10644531300000001,0.897705078,57:25.6,00:24.4
222,223,223,19.286145,-99.14043017,0.08764648400000001,0.049072265999999996,0.8747558590000001,57:25.6,00:24.4
223,224,224,19.286145,-99.14043017,0.15234375,0.07397460900000001,0.8857421879999999,57:25.7,00:24.5
224,225,225,19.286145,-99.14043017,0.092529297,0.012939453,0.8903808590000001,57:25.7,00:24.5
225,226,226,19.28610467,-99.14043483,0.124511719,0.033447266,0.869140625,57:26.9,00:25.7
226,227,227,19.28610467,-99.14043483,0.090332031,0.06469726599999999,0.9091796879999999,57:27.0,00:25.8
227,228,228,19.28610467,-99.14043483,0.10253906300000001,0.05615234400000001,0.952636719,57:27.0,00:25.8
228,229,229,19.28610467,-99.14043483,0.086425781,0.07788085900000001,0.846191406,57:27.0,00:25.8
229,230,230,19.28610467,-99.14043483,0.113769531,0.100341797,0.947265625,57:27.0,00:25.8
230,231,231,19.28610467,-99.14043483,0.144042969,0.04248046900000001,0.84375,57:27.0,00:25.8
231,232,232,19.28610467,-99.14043483,0.14526367199999998,0.068359375,0.9318847659999999,57:27.0,00:25.8
232,233,233,19.28610467,-99.14043483,0.144287109,0.088623047,0.9353027340000001,57:27.0,00:25.8
233,234,234,19.28610467,-99.14043483,0.138183594,0.083984375,0.8981933590000001,57:27.1,00:25.9
234,235,235,19.28606283,-99.14044133,0.10913085900000001,0.083007813,0.94921875,57:27.2,00:26.0
235,236,236,19.28606283,-99.14044133,0.09741210900000001,0.05712890599999999,0.8576660159999999,57:27.3,00:26.1
236,237,237,19.28606283,-99.14044133,0.119628906,0.024658202999999997,0.84375,57:27.3,00:26.1
237,238,238,19.28606283,-99.14044133,0.185058594,0.041503906,0.9084472659999999,57:27.4,00:26.2
238,239,239,19.28606283,-99.14044133,0.127197266,0.062988281,0.9404296879999999,57:27.5,00:26.3
239,240,240,19.28606283,-99.14044133,0.110107422,0.100341797,0.978515625,57:27.6,00:26.4
240,241,241,19.28606283,-99.14044133,0.15161132800000002,0.07055664099999999,0.8688964840000001,57:27.6,00:26.4
241,242,242,19.28606283,-99.14044133,0.114501953,0.08813476599999999,0.979736328,57:27.7,00:26.5
242,243,243,19.28606283,-99.14044133,0.10717773400000001,0.129394531,0.900878906,57:27.7,00:26.5
243,244,244,19.28601767,-99.14044067,0.077392578,0.091796875,0.8806152340000001,57:28.2,00:27.0
244,245,245,19.28601767,-99.14044067,0.183105469,0.101074219,0.923095703,57:28.3,00:27.1
245,246,246,19.28601767,-99.14044067,0.129882813,0.06640625,0.934082031,57:28.3,00:27.1
246,247,247,19.28601767,-99.14044067,0.037109375,0.114746094,0.9768066409999999,57:28.4,00:27.2
247,248,248,19.28601767,-99.14044067,0.12402343800000001,0.071777344,0.929199219,57:28.5,00:27.3
248,249,249,19.28601767,-99.14044067,0.06005859400000001,0.07421875,0.921386719,57:28.6,00:27.4
249,250,250,19.28601767,-99.14044067,0.164306641,0.089111328,0.876464844,57:28.6,00:27.4
250,251,251,19.28601767,-99.14044067,0.20239257800000002,0.028808594,0.8552246090000001,57:29.9,00:28.7
251,252,252,19.28601767,-99.14044067,0.21362304699999998,0.085449219,0.9025878909999999,57:29.9,00:28.7
252,253,253,19.28597217,-99.14044017,0.144287109,0.095214844,0.890625,57:29.9,00:28.7
253,254,254,19.28597217,-99.14044017,0.106201172,0.103515625,0.9375,57:29.9,00:28.7
254,255,255,19.28597217,-99.14044017,0.108642578,0.128417969,0.8903808590000001,57:29.9,00:28.7
255,256,256,19.28597217,-99.14044017,0.124511719,0.14379882800000002,0.951171875,57:30.0,00:28.8
256,257,257,19.28597217,-99.14044017,0.065429688,0.138183594,0.936035156,57:30.0,00:28.8
257,258,258,19.28597217,-99.14044017,0.045654297,0.11328125,0.904785156,57:30.0,00:28.8
258,259,259,19.28597217,-99.14044017,0.000976563,0.08203125,1.029541016,57:30.0,00:28.8
259,260,260,19.28597217,-99.14044017,0.12084960900000001,0.032470703,0.9260253909999999,57:30.0,00:28.8
260,261,261,19.28597217,-99.14044017,0.134521484,0.167480469,0.88671875,57:30.0,00:28.8
261,262,262,19.28592667,-99.14044867,0.14526367199999998,0.152587891,0.845214844,57:30.2,00:29.0
262,263,263,19.28592667,-99.14044867,0.20190429699999998,0.10131835900000001,0.9404296879999999,57:30.3,00:29.1
263,264,264,19.28592667,-99.14044867,0.10644531300000001,0.0625,0.96484375,57:30.3,00:29.1
264,265,265,19.28592667,-99.14044867,0.16479492199999998,0.095703125,0.9104003909999999,57:30.4,00:29.2
265,266,266,19.28592667,-99.14044867,0.135742188,0.094970703,0.880126953,57:30.5,00:29.3
266,267,267,19.28592667,-99.14044867,0.116455078,0.12329101599999999,0.9111328129999999,57:30.6,00:29.4
267,268,268,19.28592667,-99.14044867,0.073242188,0.0546875,0.930175781,57:30.6,00:29.4
268,269,269,19.28592667,-99.14044867,0.086425781,0.10839843800000001,0.950439453,57:30.7,00:29.5
269,270,270,19.28592667,-99.14044867,0.138183594,0.125976563,0.9645996090000001,57:30.7,00:29.5
270,271,271,19.285883,-99.14045833,0.127929688,0.091308594,0.9357910159999999,57:31.2,00:30.0
271,272,272,19.285883,-99.14045833,0.136474609,0.069335938,0.9221191409999999,57:31.3,00:30.1
272,273,273,19.285883,-99.14045833,0.152099609,0.128417969,0.9404296879999999,57:31.3,00:30.1
273,274,274,19.285883,-99.14045833,0.14770507800000002,0.061279297,0.9521484379999999,57:31.4,00:30.2
274,275,275,19.285883,-99.14045833,0.100830078,0.07397460900000001,0.9802246090000001,57:31.5,00:30.3
275,276,276,19.285883,-99.14045833,0.169433594,0.052490234000000004,0.921875,57:32.7,00:31.5
276,277,277,19.285883,-99.14045833,0.112548828,0.084716797,0.9755859379999999,57:32.7,00:31.5
277,278,278,19.285883,-99.14045833,0.142333984,0.036376953,0.9025878909999999,57:32.7,00:31.5
278,279,279,19.285883,-99.14045833,0.129882813,0.063232422,0.9599609379999999,57:32.8,00:31.6
279,280,280,19.28583733,-99.14046433,0.136962891,0.083496094,0.893310547,57:32.8,00:31.6
280,281,281,19.28583733,-99.14046433,0.080078125,0.08032226599999999,0.9177246090000001,57:32.8,00:31.6
281,282,282,19.28583733,-99.14046433,0.12011718800000001,0.0390625,0.873535156,57:32.8,00:31.6
282,283,283,19.28583733,-99.14046433,0.107421875,0.084472656,0.948730469,57:32.8,00:31.6
283,284,284,19.28583733,-99.14046433,0.11694335900000001,0.066894531,0.8603515629999999,57:32.8,00:31.6
284,285,285,19.28583733,-99.14046433,0.12817382800000002,0.061279297,0.8591308590000001,57:32.8,00:31.6
285,286,286,19.28583733,-99.14046433,0.131347656,0.069824219,0.919189453,57:32.9,00:31.7
286,287,287,19.28583733,-99.14046433,0.1640625,0.060791015999999996,0.908203125,57:32.9,00:31.7
287,288,288,19.28583733,-99.14046433,0.135253906,0.094482422,0.9645996090000001,57:32.9,00:31.7
288,289,289,19.28579117,-99.14046967,0.142822266,0.06005859400000001,0.8767089840000001,57:33.2,00:32.0
289,290,290,19.28579117,-99.14046967,0.171386719,0.10327148400000001,0.926269531,57:33.3,00:32.1
290,291,291,19.28579117,-99.14046967,0.135253906,0.125488281,0.848388672,57:33.3,00:32.1
291,292,292,19.28579117,-99.14046967,0.071044922,0.10546875,0.947753906,57:33.4,00:32.2
292,293,293,19.28579117,-99.14046967,0.09741210900000001,0.042724609000000004,0.90234375,57:33.5,00:32.3
293,294,294,19.28579117,-99.14046967,0.12768554699999998,0.102050781,0.880126953,57:33.6,00:32.4
294,295,295,19.28579117,-99.14046967,0.07055664099999999,0.114501953,0.915283203,57:33.6,00:32.4
295,296,296,19.28579117,-99.14046967,0.16284179699999998,0.145507813,0.9365234379999999,57:33.7,00:32.5
296,297,297,19.28579117,-99.14046967,0.159912109,0.092529297,0.883544922,57:33.7,00:32.5
297,298,298,19.28574483,-99.14047417,0.108886719,0.151855469,0.9606933590000001,57:34.2,00:33.0
298,299,299,19.28574483,-99.14047417,0.08984375,0.161621094,1.001708984,57:34.3,00:33.1
299,300,300,19.28574483,-99.14047417,0.063232422,0.066894531,0.924560547,57:34.3,00:33.2
300,301,301,19.28574483,-99.14047417,0.10961914099999999,0.124511719,0.926269531,57:36.0,00:34.8
301,302,302,19.28574483,-99.14047417,0.094970703,0.078613281,0.9006347659999999,57:36.0,00:34.8
302,303,303,19.28574483,-99.14047417,0.097167969,0.12011718800000001,0.927001953,57:36.1,00:34.9
303,304,304,19.28574483,-99.14047417,0.060302734000000004,0.106201172,0.99609375,57:36.1,00:34.9
304,305,305,19.28574483,-99.14047417,0.094238281,0.060546875,0.893798828,57:36.1,00:34.9
305,306,306,19.28574483,-99.14047417,0.109375,0.067382813,0.897949219,57:36.1,00:34.9
306,307,307,19.2856995,-99.14048050000001,0.08764648400000001,0.054443359000000004,0.8825683590000001,57:36.1,00:34.9
307,308,308,19.2856995,-99.14048050000001,0.121826172,0.09472656300000001,0.9326171879999999,57:36.1,00:34.9
308,309,309,19.2856995,-99.14048050000001,0.116455078,0.120361328,0.9357910159999999,57:36.2,00:35.0
309,310,310,19.2856995,-99.14048050000001,0.089355469,0.103515625,0.9755859379999999,57:36.2,00:35.0
310,311,311,19.2856995,-99.14048050000001,0.063964844,0.080566406,0.8981933590000001,57:36.2,00:35.0
311,312,312,19.2856995,-99.14048050000001,0.076904297,0.09741210900000001,0.9384765629999999,57:36.3,00:35.1
312,313,313,19.2856995,-99.14048050000001,0.128662109,0.104003906,0.969482422,57:36.3,00:35.1
313,314,314,19.2856995,-99.14048050000001,0.156494141,0.08227539099999999,0.8923339840000001,57:36.3,00:35.1
314,315,315,19.2856995,-99.14048050000001,0.126708984,0.0859375,0.8317871090000001,57:36.3,00:35.2
315,316,316,19.2856565,-99.14048433,0.143554688,0.093261719,0.916503906,57:36.4,00:35.2
316,317,317,19.2856565,-99.14048433,0.127197266,0.08764648400000001,0.9299316409999999,57:36.4,00:35.2
317,318,318,19.2856565,-99.14048433,0.140136719,0.051757813,0.8674316409999999,57:36.4,00:35.2
318,319,319,19.2856565,-99.14048433,0.100341797,0.110595703,0.954589844,57:36.4,00:35.2
319,320,320,19.2856565,-99.14048433,0.09375,0.047607422,0.905517578,57:36.5,00:35.3
320,321,321,19.2856565,-99.14048433,0.158203125,0.07788085900000001,0.8466796879999999,57:36.6,00:35.4
321,322,322,19.2856565,-99.14048433,0.087890625,0.08203125,0.884033203,57:36.6,00:35.4
322,323,323,19.2856565,-99.14048433,0.150878906,0.11938476599999999,0.8869628909999999,57:36.7,00:35.5
323,324,324,19.2856565,-99.14048433,0.11621093800000001,0.10839843800000001,0.9533691409999999,57:36.7,00:35.5
324,325,325,19.28560967,-99.14049283,0.09204101599999999,0.10375976599999999,0.942138672,57:37.2,00:36.0
325,326,326,19.28560967,-99.14049283,0.132568359,0.08984375,0.960449219,57:38.4,00:37.2
326,327,327,19.28560967,-99.14049283,0.098144531,0.106933594,0.908203125,57:38.4,00:37.3
327,328,328,19.28560967,-99.14049283,0.069580078,0.112792969,1.007568359,57:38.5,00:37.3
328,329,329,19.28560967,-99.14049283,0.13159179699999998,0.10546875,0.890136719,57:38.5,00:37.3
329,330,330,19.28560967,-99.14049283,0.113769531,0.06860351599999999,0.9013671879999999,57:38.5,00:37.3
330,331,331,19.28560967,-99.14049283,0.12963867199999998,0.104736328,0.91015625,57:38.5,00:37.3
331,332,332,19.28560967,-99.14049283,0.160644531,0.06201171900000001,0.8767089840000001,57:38.5,00:37.3
332,333,333,19.28560967,-99.14049283,0.146240234,0.09277343800000001,0.922607422,57:38.6,00:37.4
333,334,334,19.2855645,-99.1405015,0.16528320300000002,0.100341797,0.8713378909999999,57:38.6,00:37.4
334,335,335,19.2855645,-99.1405015,0.185302734,0.087158203,0.8479003909999999,57:38.6,00:37.4
335,336,336,19.2855645,-99.1405015,0.121582031,0.11328125,0.9104003909999999,57:38.6,00:37.4
336,337,337,19.2855645,-99.1405015,0.152832031,0.09375,0.864013672,57:38.6,00:37.4
337,338,338,19.2855645,-99.1405015,0.114746094,0.11108398400000001,0.912841797,57:38.6,00:37.4
338,339,339,19.2855645,-99.1405015,0.074951172,0.086669922,0.9138183590000001,57:38.7,00:37.5
339,340,340,19.2855645,-99.1405015,0.019287109,0.08764648400000001,0.9611816409999999,57:38.7,00:37.5
340,341,341,19.2855645,-99.1405015,0.06274414099999999,0.121582031,0.947998047,57:38.7,00:37.5
341,342,342,19.2855645,-99.1405015,0.10131835900000001,0.105957031,0.985107422,57:38.7,00:37.5
342,343,343,19.28552,-99.14051233,0.07397460900000001,0.071044922,0.871826172,57:39.2,00:38.0
343,344,344,19.28552,-99.14051233,0.111816406,0.067382813,0.927246094,57:39.3,00:38.1
344,345,345,19.28552,-99.14051233,0.065185547,0.10058593800000001,1.007080078,57:39.3,00:38.1
345,346,346,19.28552,-99.14051233,0.116455078,0.043701172,0.8923339840000001,57:39.4,00:38.2
346,347,347,19.28552,-99.14051233,0.150390625,0.10546875,0.91796875,57:39.5,00:38.3
347,348,348,19.28552,-99.14051233,0.081298828,0.107421875,0.897949219,57:39.5,00:38.4
348,349,349,19.28552,-99.14051233,0.136474609,0.060546875,0.928222656,57:39.6,00:38.4
349,350,350,19.28552,-99.14051233,0.2421875,0.039550781,0.9201660159999999,57:39.7,00:38.5
350,351,351,19.28552,-99.14051233,0.093261719,0.09545898400000001,0.9267578129999999,57:41.0,00:39.8
351,352,352,19.28547583,-99.14052217,0.036865234,0.148925781,0.8740234379999999,57:41.0,00:39.8
352,353,353,19.28547583,-99.14052217,0.023681641,0.137207031,0.8981933590000001,57:41.0,00:39.8
353,354,354,19.28547583,-99.14052217,0.013671875,0.10571289099999999,0.856201172,57:41.0,00:39.8
354,355,355,19.28547583,-99.14052217,0.06616210900000001,0.12011718800000001,0.9365234379999999,57:41.0,00:39.9
355,356,356,19.28547583,-99.14052217,0.135009766,0.080078125,0.893310547,57:41.1,00:39.9
356,357,357,19.28547583,-99.14052217,0.08886718800000001,0.115722656,0.8994140629999999,57:41.1,00:39.9
357,358,358,19.28547583,-99.14052217,0.036865234,0.148193359,0.951171875,57:41.1,00:39.9
358,359,359,19.28547583,-99.14052217,0.032714844,0.10546875,0.885986328,57:41.1,00:39.9
359,360,360,19.28547583,-99.14052217,-0.015625,0.13671875,0.917236328,57:41.1,00:39.9
360,361,361,19.285435500000002,-99.14052833,0.189941406,0.08764648400000001,0.911621094,57:41.2,00:40.0
361,362,362,19.285435500000002,-99.14052833,0.211914063,0.087890625,0.947998047,57:41.3,00:40.1
362,363,363,19.285435500000002,-99.14052833,0.206787109,0.056396484000000004,0.9040527340000001,57:41.3,00:40.1
363,364,364,19.285435500000002,-99.14052833,0.185791016,0.065917969,0.881347656,57:41.4,00:40.2
364,365,365,19.285435500000002,-99.14052833,0.09936523400000001,0.08959960900000001,0.8388671879999999,57:41.5,00:40.3
365,366,366,19.285435500000002,-99.14052833,0.149414063,0.07055664099999999,0.89453125,57:41.6,00:40.4
366,367,367,19.285435500000002,-99.14052833,0.07006835900000001,0.071044922,0.9782714840000001,57:41.6,00:40.4
367,368,368,19.285435500000002,-99.14052833,0.06005859400000001,0.060302734000000004,0.9560546879999999,57:41.7,00:40.5
368,369,369,19.285435500000002,-99.14052833,0.124511719,0.059326172,0.90625,57:41.7,00:40.5
369,370,370,19.285392,-99.14053183,0.133056641,0.063720703,0.942871094,57:42.2,00:41.0
370,371,371,19.285392,-99.14053183,0.06201171900000001,0.138427734,0.9501953129999999,57:42.3,00:41.1
371,372,372,19.285392,-99.14053183,0.210449219,0.106689453,0.9208984379999999,57:42.3,00:41.2
372,373,373,19.285392,-99.14053183,0.090576172,0.033691406,0.8498535159999999,57:42.4,00:41.2
373,374,374,19.285392,-99.14053183,0.114746094,-0.00390625,0.825683594,57:42.5,00:41.3
374,375,375,19.285392,-99.14053183,0.073486328,0.065673828,0.963378906,57:42.6,00:41.4
375,376,376,19.285392,-99.14053183,0.102294922,0.106689453,0.9919433590000001,57:43.8,00:42.6
376,377,377,19.285392,-99.14053183,0.127929688,0.09375,0.8752441409999999,57:43.8,00:42.6
377,378,378,19.285392,-99.14053183,0.065673828,0.057861328,0.897216797,57:43.8,00:42.6
378,379,379,19.28534867,-99.14053433,0.09082031300000001,0.07836914099999999,0.969482422,57:43.9,00:42.7
379,380,380,19.28534867,-99.14053433,0.104736328,0.069580078,0.936767578,57:43.9,00:42.7
380,381,381,19.28534867,-99.14053433,0.101074219,0.08374023400000001,0.944091797,57:43.9,00:42.7
381,382,382,19.28534867,-99.14053433,0.082763672,0.09741210900000001,0.99609375,57:43.9,00:42.7
382,383,383,19.28534867,-99.14053433,0.097167969,0.062988281,0.957763672,57:43.9,00:42.7
383,384,384,19.28534867,-99.14053433,0.12011718800000001,0.05078125,0.932861328,57:43.9,00:42.7
384,385,385,19.28534867,-99.14053433,0.128662109,0.056640625,0.905517578,57:43.9,00:42.7
385,386,386,19.28534867,-99.14053433,0.12207031300000001,0.132324219,1.008789063,57:44.0,00:42.8
386,387,387,19.28534867,-99.14053433,0.135253906,0.11425781300000001,0.9033203129999999,57:44.0,00:42.8
387,388,388,19.28530283,-99.1405365,0.166992188,0.058837890999999996,0.9392089840000001,57:44.2,00:43.0
388,389,389,19.28530283,-99.1405365,0.123535156,0.10327148400000001,0.9509277340000001,57:44.3,00:43.1
389,390,390,19.28530283,-99.1405365,0.067138672,0.098144531,0.9645996090000001,57:44.3,00:43.1
390,391,391,19.28530283,-99.1405365,0.10546875,0.043701172,0.9013671879999999,57:44.4,00:43.2
391,392,392,19.28530283,-99.1405365,0.087158203,0.067382813,0.851074219,57:44.5,00:43.3
392,393,393,19.28530283,-99.1405365,0.119628906,0.050537109000000004,0.8740234379999999,57:44.5,00:43.4
393,394,394,19.28530283,-99.1405365,0.189453125,0.06616210900000001,0.889404297,57:44.6,00:43.4
394,395,395,19.28530283,-99.1405365,0.171630859,0.084472656,0.919189453,57:44.7,00:43.5
395,396,396,19.28530283,-99.1405365,0.12084960900000001,0.057373047,0.9040527340000001,57:44.7,00:43.5
396,397,397,19.285256,-99.14053433,0.04443359400000001,0.093261719,0.980957031,57:45.2,00:44.0
397,398,398,19.285256,-99.14053433,0.108154297,0.063232422,0.921386719,57:45.3,00:44.1
398,399,399,19.285256,-99.14053433,0.08618164099999999,0.09667968800000001,0.9052734379999999,57:45.4,00:44.2
399,400,400,19.285256,-99.14053433,0.102294922,0.064453125,0.8825683590000001,57:45.5,00:44.3
400,401,401,19.285256,-99.14053433,0.085449219,0.10058593800000001,0.936279297,57:47.0,00:45.8
401,402,402,19.285256,-99.14053433,0.066894531,0.096923828,1.006591797,57:47.0,00:45.8
402,403,403,19.285256,-99.14053433,0.073486328,0.08813476599999999,0.844238281,57:47.1,00:45.9
403,404,404,19.285256,-99.14053433,0.02734375,0.10717773400000001,0.988769531,57:47.1,00:45.9
404,405,405,19.285256,-99.14053433,0.07836914099999999,0.071044922,0.925292969,57:47.1,00:45.9
405,406,406,19.28521183,-99.14053100000001,0.05615234400000001,0.076660156,0.959716797,57:47.1,00:45.9
406,407,407,19.28521183,-99.14053100000001,0.075195313,0.107421875,0.9338378909999999,57:47.1,00:45.9
407,408,408,19.28521183,-99.14053100000001,0.086669922,0.075195313,0.912597656,57:47.2,00:46.0
408,409,409,19.28521183,-99.14053100000001,0.099609375,0.109375,0.9528808590000001,57:47.2,00:46.0
409,410,410,19.28521183,-99.14053100000001,0.15161132800000002,0.089111328,0.911376953,57:47.2,00:46.0
85,86,86,19.28670783,-99.14035817,0.083984375,-0.074951172,0.92578125,02:48.9,00:10.2
86,87,87,19.28670783,-99.14035817,0.12109375,-0.069335938,1.043212891,02:48.9,00:10.2
87,88,88,19.28670783,-99.14035817,0.141113281,-0.093017578,0.887939453,02:48.9,00:10.2
88,89,89,19.28670783,-99.14035817,0.167724609,-0.12280273400000001,0.902832031,02:48.9,00:10.3
89,90,90,19.28670783,-99.14035817,0.18627929699999998,-0.082519531,0.916015625,02:48.9,00:10.3
90,91,91,19.28670783,-99.14035817,0.182617188,-0.09667968800000001,0.938964844,02:48.9,00:10.3
91,92,92,19.28670783,-99.14035817,0.124511719,-0.0546875,0.902832031,02:49.0,00:10.3
92,93,93,19.28666767,-99.14036217,0.104736328,-0.10839843800000001,0.835449219,02:49.2,00:10.6
93,94,94,19.28666767,-99.14036217,0.143066406,-0.029541016,0.899902344,02:49.3,00:10.7
94,95,95,19.28666767,-99.14036217,0.120361328,0.044189453,0.870605469,02:49.4,00:10.7
95,96,96,19.28666767,-99.14036217,0.12402343800000001,0.110107422,0.882324219,02:49.5,00:10.8
96,97,97,19.28666767,-99.14036217,0.004882813,0.192871094,0.979980469,02:49.6,00:11.0
97,98,98,19.28666767,-99.14036217,0.07202148400000001,0.021484375,0.8107910159999999,02:49.6,00:11.0
98,99,99,19.28666767,-99.14036217,0.026367188,0.075195313,0.900390625,02:49.9,00:11.2
99,100,100,19.28666767,-99.14036217,0.025146484,0.065673828,0.900878906,02:49.9,00:11.2
100,101,101,19.28666767,-99.14036217,0.130371094,-0.083007813,0.912841797,02:51.5,00:12.8
101,102,102,19.28661983,-99.140374,0.201660156,-0.088623047,0.905761719,02:51.5,00:12.8
102,103,103,19.28661983,-99.140374,0.103027344,-0.08227539099999999,0.903076172,02:51.5,00:12.9
103,104,104,19.28661983,-99.140374,0.087402344,0.020263672,0.979248047,02:51.5,00:12.9
104,105,105,19.28661983,-99.140374,0.144042969,-0.127929688,0.7880859379999999,02:51.5,00:12.9
105,106,106,19.28661983,-99.140374,0.009277344,-0.15161132800000002,0.8876953129999999,02:51.5,00:12.9
106,107,107,19.28661983,-99.140374,0.040283203,-0.090576172,0.918701172,02:51.6,00:12.9
107,108,108,19.28661983,-99.140374,-0.007080078,-0.004882813,0.9052734379999999,02:51.6,00:12.9
108,109,109,19.28661983,-99.140374,0.100830078,0.012207031,0.9372558590000001,02:51.6,00:13.0
109,110,110,19.28661983,-99.140374,0.08569335900000001,-0.104736328,0.957763672,02:51.6,00:13.0
110,111,111,19.28656383,-99.14037783,0.028320313,-0.052978515999999996,0.873779297,02:51.6,00:13.0
111,112,112,19.28656383,-99.14037783,-0.0078125,-0.10131835900000001,0.9189453129999999,02:51.7,00:13.0
112,113,113,19.28656383,-99.14037783,0.016601563,-0.185058594,0.935546875,02:51.7,00:13.0
113,114,114,19.28656383,-99.14037783,0.007568359,-0.17651367199999998,0.9748535159999999,02:51.7,00:13.0
114,115,115,19.28656383,-99.14037783,0.002685547,-0.19653320300000002,0.9689941409999999,02:51.7,00:13.0
115,116,116,19.28656383,-99.14037783,0.037353516,-0.17700195300000002,0.992919922,02:51.7,00:13.1
116,117,117,19.28656383,-99.14037783,0.205566406,-0.10131835900000001,1.075439453,02:51.7,00:13.1
117,118,118,19.28656383,-99.14037783,0.168457031,-0.138427734,1.092529297,02:51.8,00:13.1
118,119,119,19.28656383,-99.14037783,0.09985351599999999,-0.120605469,0.8864746090000001,02:51.8,00:13.1
119,120,120,19.28649333,-99.1403785,0.108886719,0.136962891,0.869873047,02:52.2,00:13.6
120,121,121,19.28649333,-99.1403785,0.157714844,-0.039550781,0.8212890629999999,02:52.3,00:13.6
121,122,122,19.28649333,-99.1403785,0.09375,-0.015136719,0.8107910159999999,02:52.3,00:13.7
122,123,123,19.28649333,-99.1403785,0.117675781,-0.069091797,0.799560547,02:52.4,00:13.8
123,124,124,19.28649333,-99.1403785,0.12622070300000002,0.063964844,0.849609375,02:52.5,00:13.8
124,125,125,19.28649333,-99.1403785,0.127197266,0.130371094,0.780761719,02:52.6,00:13.9
125,126,126,19.28649333,-99.1403785,0.046875,0.22338867199999998,0.9279785159999999,02:53.7,00:15.0
126,127,127,19.28649333,-99.1403785,0.092529297,0.145507813,0.900878906,02:53.7,00:15.1
127,128,128,19.28649333,-99.1403785,0.09008789099999999,0.150634766,0.8967285159999999,02:53.7,00:15.1
128,129,129,19.28641267,-99.14038633,0.11303710900000001,0.152832031,0.993652344,02:53.7,00:15.1
129,130,130,19.28641267,-99.14038633,0.082519531,0.150634766,0.830566406,02:53.7,00:15.1
130,131,131,19.28641267,-99.14038633,0.08886718800000001,0.112060547,1.00390625,02:53.8,00:15.1
131,132,132,19.28641267,-99.14038633,0.040283203,0.16479492199999998,0.936279297,02:53.8,00:15.1
132,133,133,19.28641267,-99.14038633,0.13549804699999998,0.037841797,0.925292969,02:53.8,00:15.1
133,134,134,19.28641267,-99.14038633,0.173583984,0.168212891,0.854248047,02:53.8,00:15.2
134,135,135,19.28641267,-99.14038633,0.23950195300000002,0.172363281,0.8454589840000001,02:53.8,00:15.2
135,136,136,19.28641267,-99.14038633,0.19140625,0.145507813,0.9306640629999999,02:53.8,00:15.2
136,137,137,19.28641267,-99.14038633,0.103027344,0.142578125,0.9357910159999999,02:53.8,00:15.2
137,138,138,19.28632867,-99.14039917,0.10180664099999999,0.0034179690000000003,0.9814453129999999,02:54.2,00:15.6
138,139,139,19.28632867,-99.14039917,0.186035156,0.06640625,0.7697753909999999,02:54.3,00:15.6
139,140,140,19.28632867,-99.14039917,0.02734375,0.126464844,0.9138183590000001,02:54.3,00:15.7
140,141,141,19.28632867,-99.14039917,0.163085938,0.090576172,0.848144531,02:54.4,00:15.8
141,142,142,19.28632867,-99.14039917,0.114501953,0.075439453,0.9453125,02:54.5,00:15.8
142,143,143,19.28632867,-99.14039917,0.070800781,0.08618164099999999,0.9501953129999999,02:54.6,00:16.0
143,144,144,19.28632867,-99.14039917,0.19921875,0.078125,0.801513672,02:54.6,00:16.0
144,145,145,19.28632867,-99.14039917,0.22534179699999998,0.004394531,0.917480469,02:54.7,00:16.0
145,146,146,19.28632867,-99.14039917,0.104248047,0.05078125,0.910644531,02:54.8,00:16.1
146,147,147,19.28624217,-99.14041367,0.08764648400000001,-0.020996094,0.895263672,02:55.2,00:16.6
147,148,148,19.28624217,-99.14041367,0.23901367199999998,0.031005859,0.7763671879999999,02:55.3,00:16.6
148,149,149,19.28624217,-99.14041367,0.020263672,0.123779297,1.067626953,02:55.3,00:16.7
149,150,150,19.28624217,-99.14041367,0.26171875,0.054931640999999996,0.846435547,02:55.4,00:16.8
150,151,151,19.28624217,-99.14041367,0.085205078,0.17114257800000002,0.985839844,02:56.5,00:17.9
151,152,152,19.28624217,-99.14041367,0.058837890999999996,0.068359375,0.9045410159999999,02:56.5,00:17.9
152,153,153,19.28624217,-99.14041367,0.110107422,-0.014160156,0.791748047,02:56.6,00:17.9
153,154,154,19.28624217,-99.14041367,0.11425781300000001,0.115966797,0.961425781,02:56.6,00:17.9
154,155,155,19.28624217,-99.14041367,0.170410156,0.042724609000000004,0.916503906,02:56.6,00:17.9
155,156,156,19.28615283,-99.1404235,0.140380859,0.0034179690000000003,0.8850097659999999,02:56.6,00:17.9
156,157,157,19.28615283,-99.1404235,0.240234375,0.022216797000000003,0.7990722659999999,02:56.6,00:18.0
157,158,158,19.28615283,-99.1404235,0.243652344,0.06201171900000001,0.8505859379999999,02:56.6,00:18.0
158,159,159,19.28615283,-99.1404235,0.26391601600000003,0.045654297,0.887207031,02:56.6,00:18.0
159,160,160,19.28615283,-99.1404235,0.169433594,0.088623047,0.862548828,02:56.6,00:18.0
160,161,161,19.28615283,-99.1404235,0.038085938,0.057617188,0.8518066409999999,02:56.7,00:18.0
161,162,162,19.28615283,-99.1404235,0.10913085900000001,0.053466797,0.9143066409999999,02:56.7,00:18.0
162,163,163,19.28615283,-99.1404235,-0.051025390999999996,0.13403320300000002,1.024169922,02:56.7,00:18.1
163,164,164,19.28615283,-99.1404235,0.080078125,0.008544922,0.802734375,02:56.7,00:18.1
164,165,165,19.28606617,-99.140424,0.152587891,0.152099609,0.972167969,02:57.2,00:18.6
165,166,166,19.28606617,-99.140424,0.094238281,0.1171875,0.9072265629999999,02:57.3,00:18.6
166,167,167,19.28606617,-99.140424,0.10327148400000001,0.047119140999999996,0.9807128909999999,02:57.3,00:18.7
167,168,168,19.28606617,-99.140424,0.146972656,0.102294922,0.888183594,02:57.4,00:18.8
168,169,169,19.28606617,-99.140424,0.252685547,0.085205078,1.0234375,02:57.5,00:18.8
169,170,170,19.28606617,-99.140424,0.071044922,0.126708984,1.032958984,02:57.6,00:18.9
170,171,171,19.28606617,-99.140424,0.117675781,0.06420898400000001,0.8630371090000001,02:57.6,00:19.0
171,172,172,19.28606617,-99.140424,0.172363281,0.029052734,0.8498535159999999,02:57.7,00:19.0
172,173,173,19.28606617,-99.140424,0.206054688,0.04736328099999999,0.826171875,02:57.7,00:19.1
173,174,174,19.28597483,-99.14043050000001,-0.06420898400000001,0.05859375,0.839355469,02:58.2,00:19.6
174,175,175,19.28597483,-99.14043050000001,0.141601563,-0.065673828,0.9157714840000001,02:58.3,00:19.6
175,176,176,19.28597483,-99.14043050000001,0.122558594,0.16479492199999998,0.9072265629999999,02:59.5,00:20.8
176,177,177,19.28597483,-99.14043050000001,0.031005859,0.157958984,0.909423828,02:59.5,00:20.8
177,178,178,19.28597483,-99.14043050000001,0.098876953,0.112060547,1.031738281,02:59.5,00:20.9
178,179,179,19.28597483,-99.14043050000001,0.1171875,0.044921875,0.923095703,02:59.5,00:20.9
179,180,180,19.28597483,-99.14043050000001,0.117675781,0.1171875,0.9196777340000001,02:59.5,00:20.9
180,181,181,19.28597483,-99.14043050000001,0.114501953,0.029052734,0.948730469,02:59.6,00:20.9
181,182,182,19.28597483,-99.14043050000001,0.15942382800000002,0.04296875,0.923339844,02:59.6,00:20.9
182,183,183,19.28588267,-99.14043683,0.119873047,0.09082031300000001,0.919921875,02:59.6,00:21.0
183,184,184,19.28588267,-99.14043683,0.08886718800000001,0.025634766,0.813964844,02:59.6,00:21.0
184,185,185,19.28588267,-99.14043683,0.107421875,0.07592773400000001,0.8486328129999999,02:59.6,00:21.0
185,186,186,19.28588267,-99.14043683,0.081542969,0.11108398400000001,0.923095703,02:59.6,00:21.0
186,187,187,19.28588267,-99.14043683,0.061523438,0.08691406300000001,0.9123535159999999,02:59.7,00:21.0
187,188,188,19.28588267,-99.14043683,0.067382813,0.052978515999999996,0.9235839840000001,02:59.7,00:21.0
188,189,189,19.28588267,-99.14043683,0.050537109000000004,0.154541016,0.984863281,02:59.7,00:21.0
189,190,190,19.28588267,-99.14043683,0.13671875,0.13159179699999998,0.8662109379999999,02:59.7,00:21.1
190,191,191,19.28588267,-99.14043683,0.032714844,0.08618164099999999,0.94140625,02:59.8,00:21.1
191,192,192,19.285788,-99.14045083,0.092529297,0.22192382800000002,0.9943847659999999,03:00.2,00:21.6
192,193,193,19.285788,-99.14045083,0.129882813,0.058837890999999996,0.8193359379999999,03:00.3,00:21.6
193,194,194,19.285788,-99.14045083,0.187744141,0.06201171900000001,0.755371094,03:00.3,00:21.7
194,195,195,19.285788,-99.14045083,0.244384766,0.084472656,0.9279785159999999,03:00.4,00:21.8
195,196,196,19.285788,-99.14045083,0.138916016,0.125244141,0.841308594,03:00.5,00:21.8
196,197,197,19.285788,-99.14045083,0.222900391,0.13671875,0.949707031,03:00.6,00:21.9
197,198,198,19.285788,-99.14045083,0.084716797,0.105957031,0.9140625,03:00.6,00:22.0
198,199,199,19.285788,-99.14045083,0.067871094,0.174072266,0.958496094,03:00.7,00:22.0
199,200,200,19.285788,-99.14045083,0.08984375,0.071289063,0.972167969,03:00.7,00:22.1
200,201,201,19.285695999999998,-99.140462,0.131103516,0.122558594,0.9411621090000001,03:02.0,00:23.4
201,202,202,19.285695999999998,-99.140462,0.126708984,0.04296875,0.8884277340000001,03:02.0,00:23.4
202,203,203,19.285695999999998,-99.140462,0.195068359,0.019042969,0.883544922,03:02.1,00:23.4
203,204,204,19.285695999999998,-99.140462,0.162597656,0.130859375,0.837402344,03:02.1,00:23.4
204,205,205,19.285695999999998,-99.140462,0.060791015999999996,0.094238281,0.7893066409999999,03:02.1,00:23.5
205,206,206,19.285695999999998,-99.140462,0.10913085900000001,0.034912109,0.9755859379999999,03:02.1,00:23.5
206,207,207,19.285695999999998,-99.140462,0.1640625,0.030273438,0.854003906,03:02.1,00:23.5
207,208,208,19.285695999999998,-99.140462,0.093261719,0.112792969,1.090332031,03:02.1,00:23.5
208,209,209,19.285695999999998,-99.140462,0.1171875,0.0859375,0.936035156,03:02.2,00:23.5
209,210,210,19.28560633,-99.14047983,0.16870117199999998,0.002685547,0.853515625,03:02.2,00:23.6
210,211,211,19.28560633,-99.14047983,0.14379882800000002,0.021484375,0.9455566409999999,03:02.3,00:23.6
211,212,212,19.28560633,-99.14047983,0.15356445300000002,0.023925781,0.884765625,03:02.3,00:23.7
212,213,213,19.28560633,-99.14047983,0.161132813,0.0703125,0.8942871090000001,03:02.4,00:23.8
213,214,214,19.28560633,-99.14047983,0.102294922,0.090576172,0.967285156,03:02.5,00:23.8
214,215,215,19.28560633,-99.14047983,0.089355469,0.035400391,0.952636719,03:02.6,00:23.9
215,216,216,19.28560633,-99.14047983,0.06665039099999999,0.06860351599999999,1.042480469,03:02.6,00:24.0
216,217,217,19.28560633,-99.14047983,0.049072265999999996,0.09155273400000001,0.8864746090000001,03:02.7,00:24.0
217,218,218,19.28560633,-99.14047983,0.088378906,0.130615234,0.873779297,03:02.7,00:24.1
218,219,219,19.28551967,-99.14049567,0.08227539099999999,0.156005859,1.018798828,03:03.2,00:24.6
219,220,220,19.28551967,-99.14049567,0.10717773400000001,0.08984375,0.9221191409999999,03:03.3,00:24.6
220,221,221,19.28551967,-99.14049567,0.077392578,0.065185547,0.8525390629999999,03:03.3,00:24.7
221,222,222,19.28551967,-99.14049567,0.085205078,0.048828125,1.059326172,03:03.4,00:24.8
222,223,223,19.28551967,-99.14049567,0.14453125,0.0234375,0.899658203,03:03.5,00:24.8
223,224,224,19.28551967,-99.14049567,0.115722656,0.083251953,0.757324219,03:03.6,00:24.9
224,225,225,19.28551967,-99.14049567,0.131835938,0.07055664099999999,0.8356933590000001,03:03.6,00:25.0
225,226,226,19.28551967,-99.14049567,-0.15161132800000002,0.01953125,1.029296875,03:04.8,00:26.1
226,227,227,19.28551967,-99.14049567,-0.007568359,0.052734375,0.939453125,03:04.8,00:26.2
227,228,228,19.285429999999998,-99.1405075,0.086425781,0.154785156,0.916503906,03:04.8,00:26.2
228,229,229,19.285429999999998,-99.1405075,0.10253906300000001,0.134765625,0.7907714840000001,03:04.8,00:26.2
229,230,230,19.285429999999998,-99.1405075,0.006591797,0.151367188,0.946533203,03:04.9,00:26.2
230,231,231,19.285429999999998,-99.1405075,0.203125,0.127197266,0.818847656,03:04.9,00:26.2
231,232,232,19.285429999999998,-99.1405075,0.176025391,0.088623047,0.809814453,03:04.9,00:26.3
232,233,233,19.285429999999998,-99.1405075,0.0014648439999999999,0.108886719,0.856933594,03:04.9,00:26.3
233,234,234,19.285429999999998,-99.1405075,0.044189453,0.219726563,0.889892578,03:05.0,00:26.3
234,235,235,19.285429999999998,-99.1405075,0.089111328,0.145507813,0.8688964840000001,03:05.0,00:26.3
235,236,236,19.285429999999998,-99.1405075,0.167724609,0.137695313,0.8154296879999999,03:05.0,00:26.3
236,237,237,19.28533783,-99.1405205,0.081542969,0.023193359,1.065429688,03:05.2,00:26.6
237,238,238,19.28533783,-99.1405205,0.071533203,0.072753906,0.8771972659999999,03:05.3,00:26.6
238,239,239,19.28533783,-99.1405205,0.190917969,0.067138672,0.839355469,03:05.3,00:26.7
239,240,240,19.28533783,-99.1405205,0.08764648400000001,0.09765625,0.870605469,03:05.4,00:26.8
240,241,241,19.28533783,-99.1405205,0.055419922,0.09545898400000001,0.9533691409999999,03:05.5,00:26.8
241,242,242,19.28533783,-99.1405205,0.19067382800000002,0.039550781,0.904785156,03:05.5,00:26.9
242,243,243,19.28533783,-99.1405205,0.024169922000000003,0.10766601599999999,0.953125,03:05.6,00:27.0
243,244,244,19.28533783,-99.1405205,0.09375,0.08569335900000001,0.932861328,03:05.9,00:27.2
244,245,245,19.28533783,-99.1405205,0.086425781,0.04638671900000001,0.8747558590000001,03:05.9,00:27.2
245,246,246,19.28524683,-99.14053249999999,0.110107422,0.09008789099999999,0.7763671879999999,03:06.2,00:27.6
246,247,247,19.28524683,-99.14053249999999,0.055419922,0.146240234,0.812988281,03:06.3,00:27.6
247,248,248,19.28524683,-99.14053249999999,0.123535156,0.134277344,0.927734375,03:06.3,00:27.7
248,249,249,19.28524683,-99.14053249999999,0.079345703,0.21411132800000002,0.912109375,03:06.4,00:27.8
249,250,250,19.28524683,-99.14053249999999,0.101074219,0.187255859,1.077636719,03:06.5,00:27.8
250,251,251,19.28524683,-99.14053249999999,0.086669922,0.09155273400000001,0.9755859379999999,03:08.1,00:29.5
251,252,252,19.28524683,-99.14053249999999,0.10717773400000001,0.07446289099999999,0.904785156,03:08.2,00:29.5
252,253,253,19.28524683,-99.14053249999999,0.14575195300000002,0.144775391,0.882324219,03:08.2,00:29.5
253,254,254,19.28524683,-99.14053249999999,0.136962891,0.193847656,0.861328125,03:08.2,00:29.5
254,255,255,19.28515717,-99.14054117,0.159912109,0.182617188,0.812988281,03:08.2,00:29.6
255,256,256,19.28515717,-99.14054117,0.12475585900000001,0.119873047,0.936767578,03:08.2,00:29.6
256,257,257,19.28515717,-99.14054117,0.15625,0.09399414099999999,0.834472656,03:08.2,00:29.6
257,258,258,19.28515717,-99.14054117,0.097167969,0.114501953,0.928222656,03:08.2,00:29.6
258,259,259,19.28515717,-99.14054117,0.12573242199999998,0.112548828,0.8962402340000001,03:08.3,00:29.6
259,260,260,19.28515717,-99.14054117,0.063232422,0.186035156,0.8466796879999999,03:08.3,00:29.6
260,261,261,19.28515717,-99.14054117,0.103515625,0.108154297,0.8947753909999999,03:08.3,00:29.6
261,262,262,19.28515717,-99.14054117,0.093261719,0.203369141,0.934082031,03:08.3,00:29.7
262,263,263,19.28515717,-99.14054117,0.1484375,0.115966797,0.8381347659999999,03:08.3,00:29.7
263,264,264,19.285072,-99.1405495,0.108154297,0.131347656,0.9455566409999999,03:08.3,00:29.7
264,265,265,19.285072,-99.1405495,0.160400391,0.14770507800000002,0.8232421879999999,03:08.4,00:29.7
265,266,266,19.285072,-99.1405495,0.156494141,0.09741210900000001,0.92578125,03:08.4,00:29.7
266,267,267,19.285072,-99.1405495,0.104736328,0.14965820300000002,0.9104003909999999,03:08.4,00:29.8
267,268,268,19.285072,-99.1405495,0.097167969,0.167724609,1.006347656,03:08.5,00:29.8
268,269,269,19.285072,-99.1405495,0.170410156,0.011474608999999998,0.9143066409999999,03:08.6,00:29.9
269,270,270,19.285072,-99.1405495,0.104248047,0.20043945300000002,0.95703125,03:08.6,00:30.0
270,271,271,19.285072,-99.1405495,0.085449219,0.065917969,0.7502441409999999,03:08.7,00:30.0
271,272,272,19.285072,-99.1405495,0.10449218800000001,0.159179688,0.930175781,03:08.7,00:30.1
272,273,273,19.284997,-99.14055433,0.30297851600000003,0.48266601600000003,0.753173828,03:09.2,00:30.6
273,274,274,19.284997,-99.14055433,0.34228515600000003,-0.012207031,1.052246094,03:09.3,00:30.6
274,275,275,19.284997,-99.14055433,0.171630859,0.20239257800000002,1.084716797,03:09.3,00:30.7
275,276,276,19.284997,-99.14055433,0.138427734,0.071533203,0.9736328129999999,03:10.7,00:32.1
276,277,277,19.284997,-99.14055433,0.10839843800000001,0.073242188,0.8134765629999999,03:10.7,00:32.1
277,278,278,19.284997,-99.14055433,0.086425781,0.237792969,0.834472656,03:10.8,00:32.1
278,279,279,19.284997,-99.14055433,0.083251953,0.22143554699999998,0.944824219,03:10.8,00:32.1
279,280,280,19.284997,-99.14055433,0.160644531,0.168945313,0.8720703129999999,03:10.8,00:32.1
280,281,281,19.284997,-99.14055433,0.129882813,0.142333984,0.8447265629999999,03:10.8,00:32.2
281,282,282,19.28492717,-99.140566,0.107421875,0.240722656,0.860839844,03:10.8,00:32.2
282,283,283,19.28492717,-99.140566,0.037109375,0.246337891,0.9377441409999999,03:10.9,00:32.2
283,284,284,19.28492717,-99.140566,0.081298828,0.22924804699999998,0.9509277340000001,03:10.9,00:32.2
284,285,285,19.28492717,-99.140566,0.12133789099999999,0.161132813,0.910888672,03:10.9,00:32.2
285,286,286,19.28492717,-99.140566,0.140625,0.156494141,0.8962402340000001,03:10.9,00:32.3
286,287,287,19.28492717,-99.140566,0.111328125,0.167724609,0.930175781,03:10.9,00:32.3
287,288,288,19.28492717,-99.140566,0.094970703,0.19140625,0.926269531,03:10.9,00:32.3
288,289,289,19.28492717,-99.140566,0.151855469,0.201416016,0.932861328,03:11.0,00:32.3
289,290,290,19.28492717,-99.140566,0.11499023400000001,0.24877929699999998,0.933105469,03:11.0,00:32.3
290,291,291,19.28485183,-99.14057767,0.08374023400000001,0.192382813,0.942138672,03:11.2,00:32.6
291,292,292,19.28485183,-99.14057767,0.088623047,0.193359375,0.893798828,03:11.3,00:32.6
292,293,293,19.28485183,-99.14057767,0.071533203,0.238525391,0.9606933590000001,03:11.3,00:32.7
293,294,294,19.28485183,-99.14057767,0.124267578,0.246582031,0.8994140629999999,03:11.4,00:32.8
294,295,295,19.28485183,-99.14057767,0.077148438,0.290283203,0.9455566409999999,03:11.5,00:32.8
295,296,296,19.28485183,-99.14057767,0.091064453,0.284179688,0.876220703,03:11.6,00:32.9
296,297,297,19.28485183,-99.14057767,0.09008789099999999,0.278320313,0.892578125,03:11.6,00:33.0
297,298,298,19.28485183,-99.14057767,0.092285156,0.244628906,0.8532714840000001,03:11.7,00:33.0
298,299,299,19.28485183,-99.14057767,0.105957031,0.272216797,0.9072265629999999,03:11.7,00:33.1
299,300,300,19.28478467,-99.140588,0.214355469,0.09204101599999999,0.863769531,03:12.2,00:33.6
300,301,301,19.28478467,-99.140588,0.14916992199999998,0.16528320300000002,0.9060058590000001,03:13.6,00:35.0
301,302,302,19.28478467,-99.140588,0.11743164099999999,0.131347656,0.921142578,03:13.7,00:35.0
302,303,303,19.28478467,-99.140588,0.11816406300000001,0.12622070300000002,0.883300781,03:13.7,00:35.0
303,304,304,19.28478467,-99.140588,0.096191406,0.122558594,0.9826660159999999,03:13.7,00:35.0
304,305,305,19.28478467,-99.140588,0.040527344,0.128662109,0.9685058590000001,03:13.7,00:35.1
305,306,306,19.28478467,-99.140588,0.071777344,0.11816406300000001,0.912841797,03:13.7,00:35.1
306,307,307,19.28478467,-99.140588,0.10058593800000001,0.12573242199999998,0.877685547,03:13.7,00:35.1
307,308,308,19.28478467,-99.140588,0.18090820300000002,0.112060547,0.917236328,03:13.7,00:35.1
308,309,309,19.28472633,-99.14059517,0.182128906,0.119873047,0.888671875,03:13.8,00:35.1
309,310,310,19.28472633,-99.14059517,0.190917969,0.08032226599999999,0.868408203,03:13.8,00:35.1
310,311,311,19.28472633,-99.14059517,0.14575195300000002,0.099121094,0.9765625,03:13.8,00:35.1
311,312,312,19.28472633,-99.14059517,0.12084960900000001,0.065917969,0.9221191409999999,03:13.8,00:35.2
312,313,313,19.28472633,-99.14059517,0.13598632800000002,0.055664063,0.9025878909999999,03:13.8,00:35.2
313,314,314,19.28472633,-99.14059517,0.12207031300000001,0.09765625,0.926269531,03:13.9,00:35.2
314,315,315,19.28472633,-99.14059517,0.158203125,0.032226563,0.955078125,03:13.9,00:35.2
315,316,316,19.28472633,-99.14059517,0.137207031,0.100341797,0.862548828,03:13.9,00:35.3
316,317,317,19.28472633,-99.14059517,0.12133789099999999,0.130615234,0.993408203,03:13.9,00:35.3
317,318,318,19.2846695,-99.14060117,0.15356445300000002,0.14135742199999998,0.921142578,03:14.2,00:35.6
318,319,319,19.2846695,-99.14060117,0.170410156,0.135742188,0.846923828,03:14.3,00:35.6
319,320,320,19.2846695,-99.14060117,0.14184570300000002,0.13989257800000002,0.928466797,03:14.3,00:35.7
320,321,321,19.2846695,-99.14060117,0.12890625,0.040039063,0.8720703129999999,03:14.4,00:35.8
321,322,322,19.2846695,-99.14060117,0.090332031,0.127929688,0.924316406,03:14.5,00:35.8
322,323,323,19.2846695,-99.14060117,0.1484375,0.12280273400000001,0.926513672,03:14.6,00:35.9
323,324,324,19.2846695,-99.14060117,0.146728516,0.069580078,0.875732422,03:14.6,00:36.0
324,325,325,19.2846695,-99.14060117,0.12475585900000001,0.076171875,0.846435547,03:14.7,00:36.0
0,1,1,0.0,0.0,0.107910156,0.08618164099999999,0.884033203,04:59.4,00:00.1
1,2,2,0.0,0.0,0.097167969,0.10180664099999999,0.912597656,04:59.5,00:00.1
2,3,3,0.0,0.0,0.11230468800000001,0.09765625,0.919189453,04:59.6,00:00.2
3,4,4,0.0,0.0,0.10449218800000001,0.09741210900000001,0.9084472659999999,04:59.6,00:00.3
4,5,5,0.0,0.0,0.097167969,0.096923828,0.926269531,04:59.7,00:00.3
5,6,6,0.0,0.0,0.11816406300000001,0.088378906,0.886230469,04:59.8,00:00.5
6,7,7,19.28670067,-99.1403245,0.12133789099999999,0.075439453,0.909423828,05:00.2,00:00.9
7,8,8,19.28670067,-99.1403245,0.12890625,0.0625,0.877685547,05:00.2,00:00.9
8,9,9,19.28670067,-99.1403245,0.12133789099999999,0.069091797,0.872558594,05:00.3,00:01.0
9,10,10,19.28670067,-99.1403245,0.11328125,0.06469726599999999,0.903076172,05:00.4,00:01.1
10,11,11,19.28670067,-99.1403245,0.092529297,0.10522460900000001,0.888183594,05:00.5,00:01.1
11,12,12,19.28670067,-99.1403245,0.108154297,0.09741210900000001,0.9318847659999999,05:00.5,00:01.2
12,13,13,19.28670067,-99.1403245,0.09863281300000001,0.11035156300000001,0.9357910159999999,05:00.6,00:01.3
13,14,14,19.28670067,-99.1403245,0.110839844,0.10327148400000001,0.9235839840000001,05:00.7,00:01.3
14,15,15,19.28670067,-99.1403245,0.10571289099999999,0.101074219,0.9216308590000001,05:00.7,00:01.4
15,16,16,19.286700500000002,-99.140325,0.15234375,0.027587891,0.9470214840000001,05:01.2,00:01.9
16,17,17,19.286700500000002,-99.140325,0.12768554699999998,0.018554688,0.967285156,05:01.2,00:01.9
17,18,18,19.286700500000002,-99.140325,0.115966797,-0.030273438,0.924316406,05:01.3,00:02.0
18,19,19,19.286700500000002,-99.140325,0.121826172,-0.033203125,0.942626953,05:01.4,00:02.1
19,20,20,19.286700500000002,-99.140325,0.12084960900000001,-0.05126953099999999,0.947265625,05:01.5,00:02.1
20,21,21,19.286700500000002,-99.140325,0.12817382800000002,-0.06274414099999999,0.928466797,05:01.5,00:02.2
21,22,22,19.286700500000002,-99.140325,0.14526367199999998,-0.07836914099999999,0.919189453,05:01.6,00:02.3
22,23,23,19.286700500000002,-99.140325,0.14916992199999998,-0.138183594,0.893310547,05:01.7,00:02.3
23,24,24,19.286700500000002,-99.140325,0.115722656,-0.099609375,0.938964844,05:01.7,00:02.4
24,25,25,19.28669317,-99.14032883,0.11889648400000001,-0.14379882800000002,0.988769531,05:02.2,00:02.9
25,26,26,19.28669317,-99.14032883,0.07397460900000001,-0.026855469,0.932861328,05:03.4,00:04.0
26,27,27,19.28669317,-99.14032883,0.104003906,-0.042236328,0.933105469,05:03.4,00:04.1
27,28,28,19.28669317,-99.14032883,0.11938476599999999,-0.027099609,0.885498047,05:03.4,00:04.1
28,29,29,19.28669317,-99.14032883,0.08959960900000001,-0.025634766,0.899902344,05:03.4,00:04.1
29,30,30,19.28669317,-99.14032883,0.09936523400000001,-0.032958984,0.979980469,05:03.4,00:04.1
30,31,31,19.28669317,-99.14032883,0.08959960900000001,-0.037841797,0.957519531,05:03.5,00:04.1
31,32,32,19.28669317,-99.14032883,0.1015625,-0.050048828,0.9162597659999999,05:03.5,00:04.1
32,33,33,19.28669317,-99.14032883,0.14526367199999998,-0.087158203,0.865234375,05:03.5,00:04.2
33,34,34,19.28666883,-99.14032817,0.14135742199999998,-0.056884765999999996,0.9084472659999999,05:03.5,00:04.2
34,35,35,19.28666883,-99.14032817,0.133056641,-0.05029296900000001,0.923828125,05:03.5,00:04.2
35,36,36,19.28666883,-99.14032817,0.21875,-0.097167969,0.8068847659999999,05:03.6,00:04.2
36,37,37,19.28666883,-99.14032817,0.191650391,-0.10449218800000001,0.966064453,05:03.6,00:04.2
37,38,38,19.28666883,-99.14032817,0.136230469,-0.06469726599999999,1.062255859,05:03.6,00:04.2
38,39,39,19.28666883,-99.14032817,0.10449218800000001,-0.073486328,0.983642578,05:03.6,00:04.3
39,40,40,19.28666883,-99.14032817,0.088378906,-0.069824219,0.9255371090000001,05:03.6,00:04.3
40,41,41,19.28666883,-99.14032817,0.125488281,-0.15234375,0.891113281,05:03.7,00:04.4
41,42,42,19.28666883,-99.14032817,0.004394531,0.019042969,1.020507813,05:03.7,00:04.4
42,43,43,19.28662917,-99.14033283,0.09667968800000001,0.089111328,0.888183594,05:04.2,00:04.9
43,44,44,19.28662917,-99.14033283,0.127197266,0.118652344,0.854736328,05:04.3,00:04.9
44,45,45,19.28662917,-99.14033283,0.077392578,0.106689453,0.8825683590000001,05:04.3,00:05.0
45,46,46,19.28662917,-99.14033283,0.07397460900000001,0.069824219,0.905761719,05:04.4,00:05.1
46,47,47,19.28662917,-99.14033283,0.090576172,0.12207031300000001,0.893798828,05:04.5,00:05.2
47,48,48,19.28662917,-99.14033283,0.08422851599999999,0.161865234,0.950439453,05:04.6,00:05.2
48,49,49,19.28662917,-99.14033283,-0.012207031,0.08203125,0.944091797,05:04.6,00:05.3
49,50,50,19.28662917,-99.14033283,0.084716797,0.018066406,0.944580078,05:04.7,00:05.4
50,51,51,19.28662917,-99.14033283,0.15893554699999998,-0.185791016,0.8654785159999999,05:05.9,00:06.5
51,52,52,19.28658383,-99.14034183,0.174804688,-0.115966797,0.942138672,05:05.9,00:06.5
52,53,53,19.28658383,-99.14034183,0.158447266,-0.08984375,0.9299316409999999,05:05.9,00:06.6
53,54,54,19.28658383,-99.14034183,0.062988281,-0.03125,1.047119141,05:05.9,00:06.6
54,55,55,19.28658383,-99.14034183,0.060546875,-0.065673828,1.020263672,05:05.9,00:06.6
55,56,56,19.28658383,-99.14034183,0.01953125,-0.08203125,0.971191406,05:05.9,00:06.6
56,57,57,19.28658383,-99.14034183,0.005615234,-0.11328125,0.924560547,05:06.0,00:06.6
57,58,58,19.28658383,-99.14034183,0.012939453,-0.124511719,0.942138672,05:06.0,00:06.6
58,59,59,19.28658383,-99.14034183,0.103027344,-0.041748047,0.9118652340000001,05:06.0,00:06.7
59,60,60,19.28658383,-99.14034183,0.118652344,-0.12329101599999999,0.912109375,05:06.0,00:06.7
60,61,61,19.28652717,-99.14034617,0.31201171899999997,-0.045166015999999996,0.901611328,05:06.2,00:06.9
61,62,62,19.28652717,-99.14034617,0.09545898400000001,-0.048828125,0.981933594,05:06.3,00:06.9
62,63,63,19.28652717,-99.14034617,0.034912109,-0.092529297,0.9765625,05:06.3,00:07.0
63,64,64,19.28652717,-99.14034617,0.026855469,-0.038574219,1.052490234,05:06.4,00:07.1
64,65,65,19.28652717,-99.14034617,0.059326172,-0.085449219,0.865722656,05:06.5,00:07.2
65,66,66,19.28652717,-99.14034617,0.057617188,-0.08496093800000001,0.955078125,05:06.6,00:07.2
66,67,67,19.28652717,-99.14034617,0.196289063,-0.137207031,0.879394531,05:06.6,00:07.3
67,68,68,19.28652717,-99.14034617,0.162353516,-0.148681641,0.905761719,05:06.7,00:07.4
68,69,69,19.28652717,-99.14034617,-0.018798828,-0.110595703,0.9938964840000001,05:06.7,00:07.4
69,70,70,19.28645633,-99.14035867,0.150390625,0.059814453,0.784667969,05:07.2,00:07.9
70,71,71,19.28645633,-99.14035867,0.178710938,0.09155273400000001,0.775878906,05:07.3,00:07.9
71,72,72,19.28645633,-99.14035867,0.181884766,0.11743164099999999,0.812011719,05:07.3,00:08.0
72,73,73,19.28645633,-99.14035867,0.064453125,0.162353516,0.816894531,05:07.4,00:08.1
73,74,74,19.28645633,-99.14035867,0.162597656,0.111816406,0.830566406,05:07.5,00:08.2
74,75,75,19.28645633,-99.14035867,0.06665039099999999,0.094238281,0.871582031,05:07.6,00:08.2
75,76,76,19.28645633,-99.14035867,0.042724609000000004,0.034912109,0.9453125,05:08.7,00:09.4
76,77,77,19.28645633,-99.14035867,0.033203125,-0.041503906,0.890625,05:08.7,00:09.4
77,78,78,19.28645633,-99.14035867,0.13159179699999998,-0.063232422,0.966796875,05:08.8,00:09.4
78,79,79,19.28638033,-99.14036483,0.133056641,-0.05615234400000001,0.916015625,05:08.8,00:09.4
79,80,80,19.28638033,-99.14036483,0.176269531,-0.008056641,0.9060058590000001,05:08.8,00:09.5
80,81,81,19.28638033,-99.14036483,0.209472656,0.055419922,0.944824219,05:08.8,00:09.5
81,82,82,19.28638033,-99.14036483,0.15625,-0.07421875,0.9567871090000001,05:08.8,00:09.5
82,83,83,19.28638033,-99.14036483,0.142333984,-0.058349609000000004,0.8740234379999999,05:08.8,00:09.5
83,84,84,19.28638033,-99.14036483,0.10180664099999999,0.0014648439999999999,0.9392089840000001,05:08.8,00:09.5
84,85,85,19.28638033,-99.14036483,0.055908203,0.008789063,0.9416503909999999,05:08.9,00:09.5
85,86,86,19.28638033,-99.14036483,0.067871094,0.002685547,0.9921875,05:08.9,00:09.5
86,87,87,19.28638033,-99.14036483,0.104003906,-0.052490234000000004,0.951904297,05:08.9,00:09.6
87,88,88,19.28629767,-99.1403745,0.191162109,-0.007324219,0.860595703,05:09.2,00:09.9
88,89,89,19.28629767,-99.1403745,0.08691406300000001,0.034912109,0.971435547,05:09.3,00:09.9
89,90,90,19.28629767,-99.1403745,0.156005859,-0.050048828,0.875732422,05:09.3,00:10.0
90,91,91,19.28629767,-99.1403745,0.027099609,-0.08032226599999999,0.900878906,05:09.4,00:10.1
91,92,92,19.28629767,-99.1403745,0.188476563,-0.046630859000000004,0.711669922,05:09.5,00:10.2
92,93,93,19.28629767,-99.1403745,0.05322265599999999,0.010986328,0.895019531,05:09.6,00:10.2
93,94,94,19.28629767,-99.1403745,0.114746094,0.041015625,0.8349609379999999,05:09.6,00:10.3
94,95,95,19.28629767,-99.1403745,0.12329101599999999,0.032226563,0.914550781,05:09.7,00:10.4
95,96,96,19.28629767,-99.1403745,0.05615234400000001,0.041503906,0.868652344,05:09.7,00:10.4
96,97,97,19.28620783,-99.140385,0.093261719,0.10913085900000001,1.038574219,05:10.2,00:10.9
97,98,98,19.28620783,-99.140385,0.183837891,0.078613281,0.9240722659999999,05:10.3,00:10.9
98,99,99,19.28620783,-99.140385,0.05859375,0.19067382800000002,0.940917969,05:10.3,00:11.0
99,100,100,19.28620783,-99.140385,0.119873047,0.012451172,0.9299316409999999,05:10.4,00:11.1
100,101,101,19.28620783,-99.140385,0.13989257800000002,0.063476563,0.872314453,05:11.6,00:12.2
101,102,102,19.28620783,-99.140385,0.11499023400000001,0.06469726599999999,0.9619140629999999,05:11.6,00:12.2
102,103,103,19.28620783,-99.140385,0.173828125,0.07202148400000001,0.8688964840000001,05:11.6,00:12.3
103,104,104,19.28620783,-99.140385,0.16796875,0.058349609000000004,0.90234375,05:11.6,00:12.3
104,105,105,19.28620783,-99.140385,0.105957031,0.079101563,1.015136719,05:11.6,00:12.3
105,106,106,19.28611633,-99.14040033,0.114013672,0.07641601599999999,1.005126953,05:11.6,00:12.3
106,107,107,19.28611633,-99.14040033,0.035400391,0.009277344,0.936767578,05:11.6,00:12.3
107,108,108,19.28611633,-99.14040033,0.11743164099999999,-0.042724609000000004,0.990722656,05:11.7,00:12.3
108,109,109,19.28611633,-99.14040033,0.098876953,0.110107422,0.8884277340000001,05:11.7,00:12.4
109,110,110,19.28611633,-99.14040033,0.069335938,0.09936523400000001,0.965332031,05:11.7,00:12.4
110,111,111,19.28611633,-99.14040033,0.071777344,0.061523438,0.870361328,05:11.7,00:12.4
111,112,112,19.28611633,-99.14040033,0.076171875,0.060791015999999996,0.9501953129999999,05:11.7,00:12.4
112,113,113,19.28611633,-99.14040033,0.066894531,0.051757813,0.895263672,05:11.7,00:12.4
113,114,114,19.28611633,-99.14040033,0.09350585900000001,0.05810546900000001,0.955566406,05:11.8,00:12.4
114,115,115,19.2860245,-99.14041633,0.19213867199999998,0.05078125,0.7912597659999999,05:12.2,00:12.9
115,116,116,19.2860245,-99.14041633,0.136474609,0.068359375,0.97265625,05:12.3,00:12.9
116,117,117,19.2860245,-99.14041633,0.186523438,0.065917969,0.9138183590000001,05:12.3,00:13.0
117,118,118,19.2860245,-99.14041633,-0.018554688,0.085449219,0.969970703,05:12.4,00:13.1
118,119,119,19.2860245,-99.14041633,0.078857422,0.028320313,0.9274902340000001,05:12.5,00:13.1
119,120,120,19.2860245,-99.14041633,0.118408203,-0.011474608999999998,0.8962402340000001,05:12.6,00:13.2
120,121,121,19.2860245,-99.14041633,0.16333007800000002,-0.017822266,0.9221191409999999,05:12.6,00:13.3
121,122,122,19.2860245,-99.14041633,0.23559570300000002,0.023681641,0.8349609379999999,05:12.7,00:13.4
122,123,123,19.2860245,-99.14041633,0.16137695300000002,0.088623047,0.907714844,05:12.7,00:13.4
123,124,124,19.285932,-99.140431,0.142333984,0.082519531,0.8291015629999999,05:13.2,00:13.9
124,125,125,19.285932,-99.140431,0.150390625,0.0859375,0.8583984379999999,05:13.3,00:13.9
125,126,126,19.285932,-99.140431,0.05908203099999999,0.129882813,1.006347656,05:14.4,00:15.1
126,127,127,19.285932,-99.140431,0.134277344,0.0,0.781738281,05:14.4,00:15.1
127,128,128,19.285932,-99.140431,0.06640625,0.10571289099999999,0.965332031,05:14.4,00:15.1
128,129,129,19.285932,-99.140431,0.131835938,0.115966797,0.909667969,05:14.4,00:15.1
129,130,130,19.285932,-99.140431,0.10571289099999999,0.080810547,0.947998047,05:14.4,00:15.1
130,131,131,19.285932,-99.140431,0.073486328,0.098144531,1.097412109,05:14.5,00:15.1
131,132,132,19.285932,-99.140431,0.107421875,0.041992188,0.960205078,05:14.5,00:15.1
132,133,133,19.28583567,-99.14044683,0.06811523400000001,0.032714844,0.830078125,05:14.5,00:15.2
133,134,134,19.28583567,-99.14044683,0.09350585900000001,0.010253906,0.8896484379999999,05:14.5,00:15.2
134,135,135,19.28583567,-99.14044683,0.076660156,0.01953125,0.906982422,05:14.5,00:15.2
135,136,136,19.28583567,-99.14044683,0.048828125,0.15502929699999998,0.864501953,05:14.5,00:15.2
136,137,137,19.28583567,-99.14044683,0.16088867199999998,0.142822266,0.822265625,05:14.6,00:15.2
137,138,138,19.28583567,-99.14044683,0.159912109,0.179931641,0.765625,05:14.6,00:15.2
138,139,139,19.28583567,-99.14044683,0.071777344,0.095703125,0.9001464840000001,05:14.6,00:15.3
139,140,140,19.28583567,-99.14044683,0.147949219,0.184082031,0.932128906,05:14.7,00:15.4
140,141,141,19.28583567,-99.14044683,0.038330078,0.17846679699999998,0.873779297,05:14.7,00:15.4
141,142,142,19.28573783,-99.14046217,0.155761719,0.10644531300000001,0.882080078,05:15.2,00:15.9
142,143,143,19.28573783,-99.14046217,0.085205078,0.130615234,0.9592285159999999,05:15.3,00:15.9
143,144,144,19.28573783,-99.14046217,0.098144531,0.063476563,0.9111328129999999,05:15.3,00:16.0
144,145,145,19.28573783,-99.14046217,0.10913085900000001,0.06274414099999999,1.036132813,05:15.4,00:16.1
145,146,146,19.28573783,-99.14046217,0.12622070300000002,0.10717773400000001,1.041015625,05:15.5,00:16.1
146,147,147,19.28573783,-99.14046217,0.052490234000000004,0.09765625,0.8740234379999999,05:15.6,00:16.2
147,148,148,19.28573783,-99.14046217,0.164306641,-0.059326172,0.9240722659999999,05:15.6,00:16.3
148,149,149,19.28573783,-99.14046217,0.143066406,0.145507813,0.9592285159999999,05:15.7,00:16.4
149,150,150,19.28573783,-99.14046217,0.032470703,0.18676757800000002,0.84375,05:15.7,00:16.4
150,151,151,19.28564183,-99.14047717,0.107421875,0.093017578,0.98828125,05:16.9,00:17.6
151,152,152,19.28564183,-99.14047717,0.142089844,0.10253906300000001,0.948730469,05:17.0,00:17.6
152,153,153,19.28564183,-99.14047717,0.11230468800000001,0.083007813,0.9130859379999999,05:17.0,00:17.6
153,154,154,19.28564183,-99.14047717,0.105957031,0.07006835900000001,0.867919922,05:17.0,00:17.6
154,155,155,19.28564183,-99.14047717,0.100341797,0.110595703,0.8220214840000001,05:17.0,00:17.7
155,156,156,19.28564183,-99.14047717,0.036376953,0.057861328,0.9006347659999999,05:17.0,00:17.7
156,157,157,19.28564183,-99.14047717,0.10644531300000001,0.059326172,0.846923828,05:17.1,00:17.7
157,158,158,19.28564183,-99.14047717,0.105957031,0.076660156,0.9182128909999999,05:17.1,00:17.7
158,159,159,19.28564183,-99.14047717,0.129394531,0.012207031,0.8010253909999999,05:17.1,00:17.7
159,160,160,19.28554167,-99.1404995,0.13403320300000002,0.092529297,0.843017578,05:17.2,00:17.9
160,161,161,19.28554167,-99.1404995,0.06811523400000001,0.071044922,0.794189453,05:17.3,00:17.9
161,162,162,19.28554167,-99.1404995,0.191894531,0.170898438,0.8330078129999999,05:17.3,00:18.0
162,163,163,19.28554167,-99.1404995,0.043212890999999996,0.157226563,0.955810547,05:17.4,00:18.1
163,164,164,19.28554167,-99.1404995,0.193115234,0.171875,0.967529297,05:17.5,00:18.1
164,165,165,19.28554167,-99.1404995,0.154541016,0.135742188,0.9833984379999999,05:17.6,00:18.2
165,166,166,19.28554167,-99.1404995,0.133300781,0.08227539099999999,0.988769531,05:17.6,00:18.3
166,167,167,19.28554167,-99.1404995,0.131835938,0.083007813,0.8400878909999999,05:17.7,00:18.4
167,168,168,19.28554167,-99.1404995,0.208007813,0.206787109,0.923095703,05:17.7,00:18.4
168,169,169,19.28544517,-99.14051583,0.25610351600000003,0.036865234,0.963378906,05:18.2,00:18.9
169,170,170,19.28544517,-99.14051583,0.193115234,0.11108398400000001,0.886230469,05:18.3,00:18.9
170,171,171,19.28544517,-99.14051583,0.27099609399999997,0.048583984000000004,0.928955078,05:18.3,00:19.0
171,172,172,19.28544517,-99.14051583,0.184570313,0.154541016,0.858886719,05:18.4,00:19.1
172,173,173,19.28544517,-99.14051583,0.080078125,0.131347656,0.755371094,05:18.5,00:19.1
173,174,174,19.28544517,-99.14051583,0.061523438,0.09936523400000001,1.021972656,05:18.6,00:19.2
174,175,175,19.28544517,-99.14051583,0.209472656,0.018554688,0.9892578129999999,05:18.6,00:19.3
175,176,176,19.28544517,-99.14051583,0.15942382800000002,0.072753906,0.8947753909999999,05:20.0,00:20.6
176,177,177,19.28544517,-99.14051583,0.11303710900000001,0.11108398400000001,0.8649902340000001,05:20.0,00:20.6
177,178,178,19.28534783,-99.14052917,0.08618164099999999,0.150146484,1.107177734,05:20.0,00:20.7
178,179,179,19.28534783,-99.14052917,0.030517577999999997,0.07446289099999999,0.9353027340000001,05:20.0,00:20.7
179,180,180,19.28534783,-99.14052917,0.076171875,0.11816406300000001,0.962158203,05:20.1,00:20.7
180,181,181,19.28534783,-99.14052917,0.029296875,0.104736328,0.8935546879999999,05:20.1,00:20.7
181,182,182,19.28534783,-99.14052917,0.081298828,0.10131835900000001,0.8681640629999999,05:20.1,00:20.8
182,183,183,19.28534783,-99.14052917,0.043701172,0.106933594,0.913574219,05:20.1,00:20.8
183,184,184,19.28534783,-99.14052917,0.104248047,0.077636719,0.9208984379999999,05:20.1,00:20.8
184,185,185,19.28534783,-99.14052917,0.127441406,0.024169922000000003,0.9033203129999999,05:20.1,00:20.8
185,186,186,19.28534783,-99.14052917,0.09082031300000001,0.11694335900000001,0.851074219,05:20.1,00:20.8
186,187,187,19.2852515,-99.14054083,0.063720703,0.10839843800000001,0.909667969,05:20.2,00:20.9
187,188,188,19.2852515,-99.14054083,0.09082031300000001,0.079589844,0.9296875,05:20.3,00:20.9
188,189,189,19.2852515,-99.14054083,0.06201171900000001,0.095214844,0.846435547,05:20.3,00:21.0
189,190,190,19.2852515,-99.14054083,0.098144531,0.11499023400000001,0.775390625,05:20.4,00:21.1
190,191,191,19.2852515,-99.14054083,0.05859375,0.087158203,0.9072265629999999,05:20.5,00:21.1
191,192,192,19.2852515,-99.14054083,0.08959960900000001,0.071044922,0.867675781,05:20.6,00:21.2
192,193,193,19.2852515,-99.14054083,0.052490234000000004,0.036865234,0.914550781,05:20.6,00:21.3
193,194,194,19.2852515,-99.14054083,0.12890625,0.096923828,0.883300781,05:20.7,00:21.3
194,195,195,19.2852515,-99.14054083,0.100097656,0.106933594,0.991699219,05:20.7,00:21.4
0,1,1,0.0,0.0,0.11328125,0.090332031,0.885253906,00:13.2,00:00.2
1,2,2,0.0,0.0,0.122314453,0.080810547,0.905761719,00:13.2,00:00.3
2,3,3,0.0,0.0,0.09667968800000001,0.09765625,0.934082031,00:13.3,00:00.4
3,4,4,0.0,0.0,0.100830078,0.104736328,0.9411621090000001,00:13.4,00:00.4
4,5,5,0.0,0.0,0.09790039099999999,0.090576172,0.9392089840000001,00:13.5,00:00.5
5,6,6,0.0,0.0,0.106201172,0.094238281,0.931152344,00:13.5,00:00.6
6,7,7,0.0,0.0,0.108886719,0.07983398400000001,0.901123047,00:13.6,00:00.6
7,8,8,0.0,0.0,0.115966797,0.089111328,0.8908691409999999,00:13.7,00:00.7
8,9,9,0.0,0.0,0.09863281300000001,0.09667968800000001,0.914794922,00:13.7,00:00.7
9,10,10,19.286739,-99.14032167,0.10131835900000001,0.083251953,0.897949219,00:14.2,00:01.2
10,11,11,19.286739,-99.14032167,0.09936523400000001,0.083984375,0.872314453,00:14.2,00:01.3
11,12,12,19.286739,-99.14032167,0.11035156300000001,0.077148438,0.891113281,00:14.3,00:01.4
12,13,13,19.286739,-99.14032167,0.11621093800000001,0.072265625,0.8798828129999999,00:14.4,00:01.4
13,14,14,19.286739,-99.14032167,0.116455078,0.071533203,0.936279297,00:14.5,00:01.5
14,15,15,19.286739,-99.14032167,0.110107422,0.095214844,0.931152344,00:14.5,00:01.6
15,16,16,19.286739,-99.14032167,0.100341797,0.094482422,0.9509277340000001,00:14.6,00:01.6
16,17,17,19.286739,-99.14032167,0.08886718800000001,0.09399414099999999,0.9313964840000001,00:14.7,00:01.7
17,18,18,19.286739,-99.14032167,0.11547851599999999,0.093017578,0.8974609379999999,00:14.7,00:01.7
18,19,19,19.28673833,-99.14032233,0.104736328,0.102294922,0.948486328,00:15.2,00:02.2
19,20,20,19.28673833,-99.14032233,0.11230468800000001,0.09667968800000001,0.9260253909999999,00:15.2,00:02.3
20,21,21,19.28673833,-99.14032233,0.09545898400000001,0.1015625,0.937011719,00:15.3,00:02.3
21,22,22,19.28673833,-99.14032233,0.11108398400000001,0.09765625,0.9060058590000001,00:15.4,00:02.4
22,23,23,19.28673833,-99.14032233,0.10522460900000001,0.103515625,0.930419922,00:15.5,00:02.5
23,24,24,19.28673833,-99.14032233,0.09936523400000001,0.085449219,0.8869628909999999,00:15.5,00:02.6
24,25,25,19.28673833,-99.14032233,0.104736328,0.09985351599999999,0.874267578,00:15.6,00:02.6
25,26,26,19.28673833,-99.14032233,0.104248047,0.091796875,0.936767578,00:16.9,00:04.0
26,27,27,19.28673833,-99.14032233,0.11303710900000001,0.080810547,0.884277344,00:16.9,00:04.0
27,28,28,19.28673867,-99.14032083,0.107910156,0.090332031,0.950683594,00:17.0,00:04.0
28,29,29,19.28673867,-99.14032083,0.09790039099999999,0.104736328,0.932861328,00:17.0,00:04.0
29,30,30,19.28673867,-99.14032083,0.108154297,0.094238281,0.9240722659999999,00:17.0,00:04.0
30,31,31,19.28673867,-99.14032083,0.107421875,0.080566406,0.940185547,00:17.0,00:04.0
31,32,32,19.28673867,-99.14032083,0.115966797,0.078857422,0.905517578,00:17.0,00:04.1
32,33,33,19.28673867,-99.14032083,0.10571289099999999,0.104003906,0.8994140629999999,00:17.0,00:04.1
33,34,34,19.28673867,-99.14032083,0.126708984,0.087402344,0.90234375,00:17.1,00:04.1
34,35,35,19.28673867,-99.14032083,0.107421875,0.10717773400000001,0.881347656,00:17.1,00:04.1
35,36,36,19.28673867,-99.14032083,0.10644531300000001,0.08374023400000001,0.9357910159999999,00:17.1,00:04.1
36,37,37,19.28673883,-99.14031883,0.119628906,0.087402344,0.882324219,00:17.2,00:04.2
37,38,38,19.28673883,-99.14031883,0.113769531,0.07421875,0.87890625,00:17.2,00:04.3
