countOBU,countRSU,latitude,longitude,Ax,Ay,Az,datetime,timeFromBeginning
1,1,0,0,0.144775391,-0.187011719,0.895019531,24:37.1,00:00.0
2,2,0,0,0.164794922,-0.193115234,0.884033203,24:37.2,00:00.1
3,3,0,0,0.169677734,-0.161132813,0.942138672,24:37.3,00:00.2
4,4,19.28523517,-99.140561,0.109375,0.03515625,0.882080078,24:37.8,00:00.7
5,5,19.28523517,-99.140561,0.139892578,0.030517578,0.879882813,24:37.8,00:00.7
6,6,19.28523517,-99.140561,0.177734375,0.037109375,0.887695313,24:37.9,00:00.8
7,7,19.28523517,-99.140561,0.148193359,-0.073730469,0.916748047,24:37.9,00:00.9
8,8,19.28523517,-99.140561,0.191894531,-0.140625,0.909667969,24:38.0,00:00.9
9,9,19.28523517,-99.140561,0.152832031,-0.148925781,0.977050781,24:38.1,00:01.0
10,10,19.28523517,-99.140561,0.077392578,-0.142822266,0.971923828,24:38.2,00:01.1
11,11,19.28523517,-99.140561,0.096191406,-0.107910156,0.891601563,24:38.2,00:01.1
12,12,19.28523517,-99.140561,0.082275391,-0.067626953,0.918457031,24:38.3,00:01.2
13,13,19.2852065,-99.14055867,0.099121094,-0.041503906,0.901123047,24:38.8,00:01.7
14,14,19.2852065,-99.14055867,0.101074219,-0.064208984,0.835205078,24:38.8,00:01.7
15,15,19.2852065,-99.14055867,0.109130859,-0.038085938,0.852783203,24:38.9,00:01.8
16,16,19.2852065,-99.14055867,0.094726563,-0.021728516,0.903076172,24:38.9,00:01.9
17,17,19.2852065,-99.14055867,0.089111328,-0.026367188,0.876708984,24:39.0,00:01.9
18,18,19.2852065,-99.14055867,0.043212891,0.022705078,0.955810547,24:39.1,00:02.0
19,19,19.2852065,-99.14055867,0.119140625,0.058105469,0.823730469,24:39.2,00:02.1
20,20,19.2852065,-99.14055867,0.029296875,0.144042969,0.982910156,24:39.2,00:02.2
21,21,19.2852065,-99.14055867,0.052978516,0.117675781,0.879150391,24:39.3,00:02.2
22,22,19.28516667,-99.1405515,0.015625,0.090820313,0.883056641,24:39.8,00:02.7
23,23,19.28516667,-99.1405515,0.059082031,0.126464844,0.862060547,24:39.8,00:02.7
24,24,19.28516667,-99.1405515,0.147216797,-0.069335938,0.888916016,24:39.9,00:02.8
25,25,19.28516667,-99.1405515,0.076660156,-0.110351563,0.922607422,24:39.9,00:02.9
26,26,19.28516667,-99.1405515,0.115966797,-0.088134766,0.874511719,24:41.2,00:04.1
27,27,19.28516667,-99.1405515,0.058837891,-0.075927734,0.910400391,24:41.2,00:04.1
28,28,19.28516667,-99.1405515,0.032470703,-0.041748047,0.894042969,24:41.2,00:04.1
29,29,19.28516667,-99.1405515,-0.021728516,0.044677734,0.923583984,24:41.2,00:04.1
30,30,19.28516667,-99.1405515,-0.010009766,0.032958984,0.935302734,24:41.2,00:04.2
31,31,19.2851245,-99.14055533,0.030517578,0.035400391,0.942382813,24:41.2,00:04.2
32,32,19.2851245,-99.14055533,0.056396484,0.011230469,0.873291016,24:41.2,00:04.2
33,33,19.2851245,-99.14055533,0.103271484,-0.034667969,0.89453125,24:41.3,00:04.2
34,34,19.2851245,-99.14055533,0.100585938,0.032714844,0.913574219,24:41.3,00:04.2
35,35,19.2851245,-99.14055533,0.068847656,0.041259766,0.875976563,24:41.3,00:04.2
36,36,19.2851245,-99.14055533,0.173095703,0.012939453,0.892333984,24:41.3,00:04.2
37,37,19.2851245,-99.14055533,0.163818359,0.00390625,0.864746094,24:41.3,00:04.3
38,38,19.2851245,-99.14055533,0.112304688,0.051025391,0.883544922,24:41.3,00:04.3
39,39,19.2851245,-99.14055533,0.096679688,0.062011719,0.874023438,24:41.4,00:04.3
40,40,19.28506667,-99.1405565,0.038330078,0.038818359,0.959716797,24:41.8,00:04.7
41,41,19.28506667,-99.1405565,0.165771484,0.004150391,0.933837891,24:41.8,00:04.7
42,42,19.28506667,-99.1405565,-0.003173828,0.0390625,0.969482422,24:41.9,00:04.8
43,43,19.28506667,-99.1405565,0.091308594,0.01171875,0.922607422,24:41.9,00:04.9
44,44,19.28506667,-99.1405565,0.048095703,0.000488281,0.924560547,24:42.0,00:04.9
45,45,19.28506667,-99.1405565,0.092773438,0.052001953,0.931152344,24:42.1,00:05.0
46,46,19.28506667,-99.1405565,0.127197266,0.059814453,0.963378906,24:42.2,00:05.1
47,47,19.28506667,-99.1405565,0.205322266,-0.014648438,0.848144531,24:42.2,00:05.2
48,48,19.28506667,-99.1405565,0.802001953,-0.125732422,0.691894531,24:42.3,00:05.2
49,49,19.28500733,-99.140561,0.211181641,-0.087402344,1.067138672,24:42.8,00:05.7
50,50,19.28500733,-99.140561,-0.250732422,-0.766845703,1.311279297,24:42.8,00:05.7
51,51,19.28500733,-99.140561,0.155029297,-0.050292969,0.863769531,24:43.9,00:06.9
52,52,19.28500733,-99.140561,0.101806641,-0.020019531,0.922119141,24:43.9,00:06.9
53,53,19.28500733,-99.140561,0.180908203,-0.072021484,0.786376953,24:44.0,00:06.9
54,54,19.28500733,-99.140561,0.122802734,0.0078125,0.889892578,24:44.0,00:06.9
55,55,19.28500733,-99.140561,0.157714844,-0.022949219,0.737304688,24:44.0,00:06.9
56,56,19.28500733,-99.140561,0.071044922,-0.015380859,0.913330078,24:44.0,00:06.9
57,57,19.28500733,-99.140561,0.077392578,-0.032958984,0.761474609,24:44.0,00:07.0
58,58,19.284942,-99.14056317,0.134765625,0.012451172,0.832275391,24:44.0,00:07.0
59,59,19.284942,-99.14056317,0.068603516,0.031982422,0.869873047,24:44.1,00:07.0
60,60,19.284942,-99.14056317,-0.022705078,0.071533203,0.958496094,24:44.1,00:07.0
61,61,19.284942,-99.14056317,0.04296875,-0.036376953,0.939208984,24:44.1,00:07.0
62,62,19.284942,-99.14056317,0.137939453,-0.080810547,0.865234375,24:44.1,00:07.0
63,63,19.284942,-99.14056317,0.131591797,-0.050537109,0.848632813,24:44.1,00:07.0
64,64,19.284942,-99.14056317,0.108398438,-0.00390625,0.989501953,24:44.2,00:07.1
65,65,19.284942,-99.14056317,0.171875,0.042724609,0.871337891,24:44.2,00:07.2
66,66,19.284942,-99.14056317,0.091064453,0.052734375,1.033935547,24:44.3,00:07.2
67,67,19.28486967,-99.14056683,0.1328125,0.113525391,0.844970703,24:44.8,00:07.7
68,68,19.28486967,-99.14056683,0.161376953,0.070800781,0.911132813,24:44.8,00:07.7
69,69,19.28486967,-99.14056683,0.151855469,0.116699219,0.867431641,24:44.9,00:07.8
70,70,19.28486967,-99.14056683,0.083007813,0.094970703,0.806884766,24:44.9,00:07.9
71,71,19.28486967,-99.14056683,0.064941406,0.073242188,1.023925781,24:45.0,00:07.9
72,72,19.28486967,-99.14056683,0.099853516,0.131103516,0.932861328,24:45.1,00:08.0
73,73,19.28486967,-99.14056683,0.135986328,0.116210938,0.906494141,24:45.2,00:08.1
74,74,19.28486967,-99.14056683,0.080810547,0.065429688,0.920654297,24:45.2,00:08.2
75,75,19.28486967,-99.14056683,0.106933594,0.123535156,0.831542969,24:45.3,00:08.2
76,76,19.284792,-99.14058283,0.140136719,0.160400391,0.923095703,24:46.4,00:09.4
77,77,19.284792,-99.14058283,0.074951172,0.161621094,0.980957031,24:46.4,00:09.4
78,78,19.284792,-99.14058283,0.124511719,0.180175781,0.898925781,24:46.5,00:09.4
79,79,19.284792,-99.14058283,0.177978516,0.057373047,0.844726563,24:46.5,00:09.4
80,80,19.284792,-99.14058283,0.149414063,0.033203125,0.941162109,24:46.5,00:09.4
81,81,19.284792,-99.14058283,0.106933594,0.043701172,0.905761719,24:46.5,00:09.4
82,82,19.284792,-99.14058283,0.036132813,0.128662109,1.007324219,24:46.5,00:09.5
83,83,19.284792,-99.14058283,0.134765625,0.125,0.844482422,24:46.6,00:09.5
84,84,19.284792,-99.14058283,0.139404297,0.105712891,0.884521484,24:46.6,00:09.5
85,85,19.28471683,-99.14059383,0.112792969,0.115722656,0.933105469,24:46.8,00:09.7
86,86,19.28471683,-99.14059383,0.104003906,0.154052734,0.945068359,24:46.8,00:09.7
87,87,19.28471683,-99.14059383,0.095703125,0.118164063,0.854980469,24:46.9,00:09.8
88,88,19.28471683,-99.14059383,0.192382813,0.095214844,0.760498047,24:46.9,00:09.9
89,89,19.28471683,-99.14059383,0.101318359,0.150146484,0.941650391,24:47.0,00:10.0
90,90,19.28471683,-99.14059383,0.125244141,0.149414063,0.846923828,24:47.1,00:10.0
91,91,19.28471683,-99.14059383,0.153320313,0.230224609,0.877929688,24:47.2,00:10.1
92,92,19.28471683,-99.14059383,0.152832031,0.151367188,0.917480469,24:47.2,00:10.2
93,93,19.28471683,-99.14059383,0.166992188,0.208740234,0.913574219,24:47.3,00:10.2
94,94,19.28464,-99.14060483,0.109863281,0.093994141,0.868164063,24:47.8,00:10.7
95,95,19.28464,-99.14060483,0.232910156,0.131347656,0.813720703,24:47.8,00:10.7
96,96,19.28464,-99.14060483,0.087158203,0.182128906,0.918457031,24:47.9,00:10.8
97,97,19.28464,-99.14060483,0.101806641,0.161621094,0.893066406,24:47.9,00:10.9
98,98,19.28464,-99.14060483,0.096191406,0.150878906,0.819580078,24:48.0,00:10.9
99,99,19.28464,-99.14060483,0.044677734,0.184082031,0.896728516,24:48.1,00:11.0
100,100,19.28464,-99.14060483,0.204345703,0.088378906,0.961669922,24:48.2,00:11.1
101,101,19.28464,-99.14060483,0.116943359,0.344238281,0.884033203,24:50.7,00:13.7
102,102,19.28464,-99.14060483,0.116455078,0.237792969,0.829101563,24:50.8,00:13.7
103,103,19.28456817,-99.1406145,0.178955078,0.267333984,0.833984375,24:50.8,00:13.7
104,104,19.28456817,-99.1406145,0.215332031,0.284179688,0.863037109,24:50.8,00:13.7
105,105,19.28456817,-99.1406145,0.271484375,0.322265625,0.845703125,24:50.8,00:13.7
106,106,19.28456817,-99.1406145,0.320800781,0.316650391,0.803710938,24:50.8,00:13.8
107,107,19.28456817,-99.1406145,0.315917969,0.2265625,0.861083984,24:50.8,00:13.8
108,108,19.28456817,-99.1406145,0.334228516,0.304199219,0.867431641,24:50.9,00:13.8
109,109,19.28456817,-99.1406145,0.279785156,0.249267578,0.771728516,24:50.9,00:13.8
110,110,19.28456817,-99.1406145,0.315185547,0.230224609,0.802978516,24:50.9,00:13.8
111,111,19.28456817,-99.1406145,0.193847656,0.259521484,0.898681641,24:50.9,00:13.8
112,112,19.28449933,-99.14062383,0.137939453,0.185302734,0.830566406,24:50.9,00:13.8
113,113,19.28449933,-99.14062383,0.133789063,0.217041016,0.904785156,24:50.9,00:13.9
114,114,19.28449933,-99.14062383,0.102539063,0.230712891,0.911621094,24:50.9,00:13.9
115,115,19.28449933,-99.14062383,0.141357422,0.172851563,0.847167969,24:51.0,00:13.9
116,116,19.28449933,-99.14062383,0.162597656,0.199462891,0.925048828,24:51.0,00:13.9
117,117,19.28449933,-99.14062383,0.165283203,0.131103516,0.854248047,24:51.0,00:13.9
118,118,19.28449933,-99.14062383,0.118408203,0.187011719,0.994384766,24:51.0,00:14.0
119,119,19.28449933,-99.14062383,0.116210938,0.159179688,0.804931641,24:51.0,00:14.0
120,120,19.28449933,-99.14062383,0.091308594,0.178466797,1.012939453,24:51.0,00:14.0
121,121,19.2844385,-99.14062917,0.089599609,0.182617188,0.993896484,24:51.1,00:14.0
122,122,19.2844385,-99.14062917,0.125,0.147216797,0.860595703,24:51.1,00:14.0
123,123,19.2844385,-99.14062917,0.048339844,0.160888672,0.954589844,24:51.1,00:14.0
124,124,19.2844385,-99.14062917,0.047119141,0.125976563,0.848632813,24:51.1,00:14.0
125,125,19.2844385,-99.14062917,0.070800781,0.195556641,0.953125,24:51.1,00:14.1
126,126,19.2844385,-99.14062917,-0.037109375,-0.320556641,1.250732422,24:52.8,00:15.7
127,127,19.2844385,-99.14062917,0.045654297,-0.022705078,1.090087891,24:52.8,00:15.7
128,128,19.2844385,-99.14062917,0.121337891,0.068603516,1.039550781,24:52.8,00:15.7
129,129,19.2844385,-99.14062917,-0.053466797,0.045654297,1.034667969,24:52.8,00:15.7
130,130,19.28438733,-99.14062817,0.194580078,0.171630859,1.016601563,24:52.8,00:15.8
131,131,19.28438733,-99.14062817,0.227050781,-0.047607422,0.959228516,24:52.8,00:15.8
132,132,19.28438733,-99.14062817,0.068115234,0.214355469,0.863525391,24:52.9,00:15.8
133,133,19.28438733,-99.14062817,0.164550781,0.254394531,0.83203125,24:52.9,00:15.8
134,134,19.28438733,-99.14062817,0.081054688,0.178466797,0.961425781,24:52.9,00:15.8
135,135,19.28438733,-99.14062817,0.033935547,0.275390625,0.827636719,24:52.9,00:15.8
136,136,19.28438733,-99.14062817,0.075683594,0.25,0.794677734,24:52.9,00:15.8
137,137,19.28438733,-99.14062817,0.046630859,0.130859375,0.773681641,24:52.9,00:15.9
138,138,19.28438733,-99.14062817,0.085693359,0.217041016,0.708251953,24:52.9,00:15.9
139,139,19.2843415,-99.14063283,0.127929688,0.227294922,0.652099609,24:53.0,00:15.9
140,140,19.2843415,-99.14063283,0.189453125,0.234375,0.683837891,24:53.0,00:15.9
141,141,19.2843415,-99.14063283,0.320068359,0.3125,0.623535156,24:53.0,00:15.9
142,142,19.2843415,-99.14063283,0.538574219,0.238037109,0.665283203,24:53.0,00:16.0
143,143,19.2843415,-99.14063283,0.294921875,0.302490234,0.691650391,24:53.0,00:16.0
144,144,19.2843415,-99.14063283,0.101318359,0.302001953,0.8828125,24:53.1,00:16.0
145,145,19.2843415,-99.14063283,-0.000732422,0.279296875,0.958984375,24:53.2,00:16.1
146,146,19.2843415,-99.14063283,0.072509766,0.363525391,0.881835938,24:53.2,00:16.2
147,147,19.2843415,-99.14063283,0.115478516,0.209472656,0.926757813,24:53.3,00:16.2
148,148,19.28430017,-99.140642,0.160400391,0.104492188,1.127685547,24:53.8,00:16.7
149,149,19.28430017,-99.140642,0.139404297,0.138427734,1.161376953,24:53.8,00:16.7
150,150,19.28430017,-99.140642,0.200683594,-0.004638672,1.105224609,24:53.9,00:16.8
151,151,19.28430017,-99.140642,0.055175781,0.149414063,0.926025391,24:55.4,00:18.3
152,152,19.28430017,-99.140642,0.062011719,0.130126953,0.970214844,24:55.4,00:18.4
153,153,19.28430017,-99.140642,0.060546875,0.12890625,1.002197266,24:55.4,00:18.4
154,154,19.28430017,-99.140642,0.107177734,0.102783203,0.941650391,24:55.4,00:18.4
155,155,19.28430017,-99.140642,0.129882813,0.191162109,0.942138672,24:55.5,00:18.4
156,156,19.28430017,-99.140642,0.151123047,0.184082031,0.961669922,24:55.5,00:18.4
157,157,19.284262,-99.1406375,0.105712891,0.112548828,0.978759766,24:55.5,00:18.5
158,158,19.284262,-99.1406375,0.068359375,0.096435547,0.954101563,24:55.5,00:18.5
159,159,19.284262,-99.1406375,0.016113281,0.069824219,0.9296875,24:55.6,00:18.5
160,160,19.284262,-99.1406375,0.046875,0.077636719,0.853515625,24:55.6,00:18.5
161,161,19.284262,-99.1406375,0.043212891,0.135986328,0.918701172,24:55.6,00:18.5
162,162,19.284262,-99.1406375,0.013183594,0.083007813,0.905517578,24:55.6,00:18.5
163,163,19.284262,-99.1406375,0.020751953,0.111572266,0.928466797,24:55.6,00:18.5
164,164,19.284262,-99.1406375,0.103027344,0.069335938,0.899169922,24:55.6,00:18.6
165,165,19.284262,-99.1406375,0.113525391,0.098876953,0.892089844,24:55.6,00:18.6
166,166,19.28423,-99.14061817,0.325927734,0.061279297,0.982421875,24:55.8,00:18.7
167,167,19.28423,-99.14061817,0.331298828,0.107910156,0.90234375,24:55.8,00:18.7
168,168,19.28423,-99.14061817,0.341308594,0.068359375,0.852294922,24:55.9,00:18.8
169,169,19.28423,-99.14061817,0.234863281,0.083496094,0.846435547,24:55.9,00:18.9
170,170,19.28423,-99.14061817,0.156494141,0.042480469,0.922363281,24:56.0,00:19.0
171,171,19.28423,-99.14061817,0.201416016,0.126220703,0.943115234,24:56.1,00:19.0
172,172,19.28423,-99.14061817,0.145751953,0.111816406,0.932617188,24:56.2,00:19.1
173,173,19.28423,-99.14061817,0.172363281,0.142578125,0.891357422,24:56.2,00:19.1
174,174,19.28423,-99.14061817,0.211181641,0.182861328,0.871337891,24:56.3,00:19.2
175,175,19.28420083,-99.14058767,0.288818359,0.182861328,0.842529297,24:56.8,00:19.7
176,176,19.28420083,-99.14058767,0.590332031,0.214355469,0.839111328,24:58.2,00:21.1
177,177,19.28420083,-99.14058767,0.526367188,0.340576172,0.915527344,24:58.2,00:21.1
178,178,19.28420083,-99.14058767,0.418701172,0.312011719,1.064941406,24:58.2,00:21.1
179,179,19.28420083,-99.14058767,0.404541016,0.312988281,1.04296875,24:58.2,00:21.2
180,180,19.28420083,-99.14058767,0.303710938,0.192382813,0.864990234,24:58.2,00:21.2
181,181,19.28420083,-99.14058767,0.347167969,0.190429688,0.950683594,24:58.3,00:21.2
182,182,19.28420083,-99.14058767,0.370117188,0.208496094,0.841796875,24:58.3,00:21.2
183,183,19.28420083,-99.14058767,0.310058594,0.162109375,0.922363281,24:58.3,00:21.2
184,184,19.28418433,-99.14055117,0.347412109,0.28515625,0.852294922,24:58.3,00:21.3
185,185,19.28418433,-99.14055117,0.501220703,0.218017578,0.910644531,24:58.3,00:21.3
186,186,19.28418433,-99.14055117,0.424804688,0.211914063,0.866943359,24:58.4,00:21.3
187,187,19.28418433,-99.14055117,0.401855469,0.113525391,0.883300781,24:58.4,00:21.3
188,188,19.28418433,-99.14055117,0.418701172,0.152587891,0.792236328,24:58.4,00:21.3
189,189,19.28418433,-99.14055117,0.482177734,0.202392578,0.916503906,24:58.4,00:21.3
190,190,19.28418433,-99.14055117,0.3671875,0.188232422,0.907470703,24:58.4,00:21.3
191,191,19.28418433,-99.14055117,0.431152344,0.186767578,0.820800781,24:58.4,00:21.4
192,192,19.28418433,-99.14055117,0.379638672,0.196777344,0.834960938,24:58.5,00:21.4
193,193,19.28419783,-99.14051117,0.321044922,-0.059814453,0.919921875,24:58.8,00:21.7
194,194,19.28419783,-99.14051117,0.688720703,0.150634766,0.595458984,24:58.8,00:21.7
195,195,19.28419783,-99.14051117,0.468017578,0.020019531,0.822998047,24:58.9,00:21.8
196,196,19.28419783,-99.14051117,0.453613281,0.001708984,0.940673828,24:58.9,00:21.9
197,197,19.28419783,-99.14051117,0.479248047,-0.0546875,0.960449219,24:59.0,00:21.9
198,198,19.28419783,-99.14051117,0.2734375,0.055664063,0.818603516,24:59.1,00:22.0
199,199,19.28419783,-99.14051117,0.3984375,0.088378906,0.787597656,24:59.2,00:22.1
200,200,19.28419783,-99.14051117,0.468017578,0.127197266,0.853271484,24:59.2,00:22.1
201,201,19.28419783,-99.14051117,0.069824219,0.026855469,0.944335938,25:00.5,00:23.4
202,202,19.2842365,-99.14048917,0.093505859,-0.013671875,0.959960938,25:00.5,00:23.4
203,203,19.2842365,-99.14048917,0.163574219,-0.006835938,0.868164063,25:00.5,00:23.4
204,204,19.2842365,-99.14048917,0.121582031,0.019775391,0.952880859,25:00.5,00:23.5
205,205,19.2842365,-99.14048917,0.161376953,-0.037109375,0.919433594,25:00.5,00:23.5
206,206,19.2842365,-99.14048917,0.155273438,0.05859375,0.940917969,25:00.6,00:23.5
207,207,19.2842365,-99.14048917,0.162353516,-0.027832031,0.924316406,25:00.6,00:23.5
208,208,19.2842365,-99.14048917,0.141601563,-0.022460938,0.885742188,25:00.6,00:23.5
209,209,19.2842365,-99.14048917,0.114990234,-0.007080078,1.028320313,25:00.6,00:23.5
210,210,19.2842365,-99.14048917,0.158447266,0.020507813,0.948974609,25:00.6,00:23.6
211,211,19.28429083,-99.14047517,0.215576172,-0.010009766,0.853271484,25:00.8,00:23.7
212,212,19.28429083,-99.14047517,0.129882813,-0.00390625,0.841308594,25:00.8,00:23.7
213,213,19.28429083,-99.14047517,0.190673828,-0.004882813,0.840332031,25:00.9,00:23.8
214,214,19.28429083,-99.14047517,0.174560547,0.056396484,0.995849609,25:00.9,00:23.9
215,215,19.28429083,-99.14047517,0.086669922,-0.026123047,1.005859375,25:01.0,00:23.9
216,216,19.28429083,-99.14047517,0.103515625,0.051757813,0.933105469,25:01.1,00:24.0
217,217,19.28429083,-99.14047517,0.138916016,0.026123047,0.887451172,25:01.2,00:24.1
218,218,19.28429083,-99.14047517,0.131591797,0.033691406,0.917724609,25:01.4,00:24.3
219,219,19.28429083,-99.14047517,0.118408203,0.049316406,0.921142578,25:01.4,00:24.3
220,220,19.2843565,-99.14046267,0.146972656,-0.002441406,0.913330078,25:01.8,00:24.7
221,221,19.2843565,-99.14046267,0.135253906,0.011230469,1.009521484,25:01.8,00:24.7
222,222,19.2843565,-99.14046267,0.096435547,-0.078369141,0.843261719,25:01.9,00:24.8
223,223,19.2843565,-99.14046267,0.069580078,0.022705078,0.950683594,25:01.9,00:24.9
224,224,19.2843565,-99.14046267,0.147949219,-0.055664063,0.815185547,25:02.0,00:24.9
225,225,19.2843565,-99.14046267,0.218261719,-0.028076172,0.934326172,25:02.1,00:25.0
226,226,19.2843565,-99.14046267,0.10546875,0.061279297,0.869384766,25:03.3,00:26.3
227,227,19.2843565,-99.14046267,0.105957031,0.154052734,0.884765625,25:03.4,00:26.3
228,228,19.2843565,-99.14046267,0.047851563,0.139648438,0.979248047,25:03.4,00:26.3
229,229,19.28442983,-99.140451,0.050537109,0.261962891,0.949707031,25:03.4,00:26.3
230,230,19.28442983,-99.140451,0.040283203,0.210449219,0.857421875,25:03.4,00:26.3
231,231,19.28442983,-99.140451,0.105224609,0.117431641,0.810058594,25:03.4,00:26.3
232,232,19.28442983,-99.140451,0.176757813,0.053710938,0.786865234,25:03.4,00:26.4
233,233,19.28442983,-99.140451,0.031982422,0.112304688,0.911376953,25:03.4,00:26.4
234,234,19.28442983,-99.140451,-0.083984375,0.154541016,0.892089844,25:03.5,00:26.4
235,235,19.28442983,-99.140451,-0.036621094,0.095947266,0.979248047,25:03.5,00:26.4
236,236,19.28442983,-99.140451,0.438964844,0.098144531,0.8671875,25:03.5,00:26.4
237,237,19.28442983,-99.140451,0.354980469,0.061279297,0.696289063,25:03.5,00:26.4
238,238,19.28450933,-99.14044067,0.111816406,0.069091797,0.796875,25:03.8,00:26.7
239,239,19.28450933,-99.14044067,-0.1171875,0.122314453,1.014160156,25:03.8,00:26.7
240,240,19.28450933,-99.14044067,0.134765625,0.045654297,0.906494141,25:03.9,00:26.8
241,241,19.28450933,-99.14044067,0.197753906,-0.015136719,0.767578125,25:03.9,00:26.9
242,242,19.28450933,-99.14044067,0.017822266,0.055664063,1.040039063,25:04.0,00:26.9
243,243,19.28450933,-99.14044067,0.155761719,0.084960938,0.978759766,25:04.1,00:27.0
244,244,19.28450933,-99.14044067,0.167236328,0.017822266,0.888916016,25:04.2,00:27.1
245,245,19.28450933,-99.14044067,0.249267578,0.040771484,0.905761719,25:04.2,00:27.1
246,246,19.28450933,-99.14044067,0.255126953,-0.094238281,0.8828125,25:04.3,00:27.2
247,247,19.28458933,-99.14043333,-0.097412109,0.166503906,1,25:04.8,00:27.7
248,248,19.28458933,-99.14043333,0.099121094,-0.100830078,1.135742188,25:04.8,00:27.7
249,249,19.28458933,-99.14043333,0.138427734,0.051757813,0.96484375,25:04.9,00:27.8
250,250,19.28458933,-99.14043333,0.010986328,0.106445313,1.029052734,25:04.9,00:27.9
