countOBU,countRSU,latitude,longitude,Ax,Ay,Az,datetime,timeFromBeginning
1,1,0,0,0.104492188,0.095947266,0.908203125,11:48.2,00:00.6
2,2,0,0,0.097412109,0.084716797,0.894775391,11:48.3,00:00.6
3,3,0,0,0.115722656,0.095214844,0.935791016,11:48.3,00:00.7
4,4,0,0,0.111816406,0.107177734,0.961914063,11:48.4,00:00.8
5,5,0,0,0.108154297,0.106201172,0.949707031,11:48.5,00:00.8
6,6,0,0,0.122314453,0.099609375,0.945068359,11:48.5,00:00.9
7,7,0,0,0.107910156,0.098876953,0.930419922,11:48.6,00:01.0
8,8,0,0,0.099853516,0.100830078,0.94140625,11:48.7,00:01.0
9,9,0,0,0.106933594,0.078613281,0.903808594,11:48.7,00:01.1
10,10,19.2867345,-99.14036333,0.100341797,0.106201172,0.950683594,11:49.2,00:01.6
11,11,19.2867345,-99.14036333,0.116699219,0.086914063,0.894042969,11:49.3,00:01.6
12,12,19.2867345,-99.14036333,0.112304688,0.08203125,0.908935547,11:49.3,00:01.7
13,13,19.2867345,-99.14036333,0.116455078,0.079345703,0.879150391,11:49.4,00:01.8
14,14,19.2867345,-99.14036333,0.080566406,0.092041016,0.948242188,11:49.5,00:01.8
15,15,19.2867345,-99.14036333,0.100341797,0.089111328,0.880615234,11:49.6,00:01.9
16,16,19.2867345,-99.14036333,0.108642578,0.079101563,0.89453125,11:49.6,00:02.0
17,17,19.2867345,-99.14036333,0.124511719,0.093017578,0.897949219,11:49.9,00:02.3
18,18,19.2867345,-99.14036333,0.118164063,0.102783203,0.9453125,11:50.1,00:02.5
19,19,19.28673517,-99.1403655,0.1015625,0.08984375,0.918945313,11:50.2,00:02.6
20,20,19.28673517,-99.1403655,0.107910156,0.102783203,0.938232422,11:50.3,00:02.6
21,21,19.28673517,-99.1403655,0.112304688,0.069091797,0.904541016,11:50.3,00:02.7
22,22,19.28673517,-99.1403655,0.110107422,0.095947266,0.940673828,11:50.5,00:02.8
23,23,19.28673517,-99.1403655,0.103027344,0.102294922,0.942138672,11:50.5,00:02.9
24,24,19.28673517,-99.1403655,0.081298828,0.105712891,0.950927734,11:50.6,00:03.0
25,25,19.28673517,-99.1403655,0.09765625,0.081542969,0.938476563,11:50.6,00:03.0
26,26,19.28673517,-99.1403655,0.092773438,0.095947266,0.938232422,11:51.9,00:04.3
27,27,19.28673517,-99.1403655,0.1171875,0.088134766,0.896240234,11:51.9,00:04.3
28,28,19.28673583,-99.14036817,0.102050781,0.095458984,0.947021484,11:52.0,00:04.3
29,29,19.28673583,-99.14036817,0.120361328,0.080322266,0.887939453,11:52.0,00:04.4
30,30,19.28673583,-99.14036817,0.116699219,0.080566406,0.884033203,11:52.0,00:04.4
31,31,19.28673583,-99.14036817,0.117919922,0.103515625,0.916503906,11:52.0,00:04.4
32,32,19.28673583,-99.14036817,0.106933594,0.080322266,0.922607422,11:52.0,00:04.4
33,33,19.28673583,-99.14036817,0.12109375,0.081542969,0.894775391,11:52.1,00:04.4
34,34,19.28673583,-99.14036817,0.09375,0.104492188,0.923828125,11:52.1,00:04.4
35,35,19.28673583,-99.14036817,0.097900391,0.085205078,0.936035156,11:52.1,00:04.4
36,36,19.28673583,-99.14036817,0.109619141,0.081542969,0.89453125,11:52.1,00:04.5
37,37,19.28673633,-99.14037017,0.082763672,0.106689453,0.925292969,11:52.2,00:04.6
38,38,19.28673633,-99.14037017,0.095458984,0.108886719,0.925537109,11:52.2,00:04.6
39,39,19.28673633,-99.14037017,0.109863281,0.081787109,0.958984375,11:52.3,00:04.7
40,40,19.28673633,-99.14037017,0.108886719,0.103759766,0.934326172,11:52.4,00:04.8
41,41,19.28673633,-99.14037017,0.111083984,0.092773438,0.924560547,11:52.5,00:04.8
42,42,19.28673633,-99.14037017,0.115722656,0.089111328,0.931396484,11:52.5,00:04.9
43,43,19.28673633,-99.14037017,0.12890625,0.075195313,0.875,11:52.6,00:05.0
44,44,19.28673633,-99.14037017,0.105712891,0.070800781,0.908691406,11:52.7,00:05.0
45,45,19.28673633,-99.14037017,0.115722656,0.080566406,0.875732422,11:52.7,00:05.1
46,46,19.28673717,-99.140373,0.116943359,0.056640625,0.920898438,11:53.2,00:05.6
47,47,19.28673717,-99.140373,0.110839844,0.114013672,0.87890625,11:53.3,00:05.6
48,48,19.28673717,-99.140373,0.114746094,0.082763672,0.864990234,11:53.3,00:05.7
49,49,19.28673717,-99.140373,0.116943359,0.087646484,0.906005859,11:53.4,00:05.8
50,50,19.28673717,-99.140373,0.103515625,0.037109375,0.912841797,11:53.5,00:05.8
51,51,19.28673717,-99.140373,0.133789063,-0.133544922,0.953369141,11:54.6,00:07.0
52,52,19.28673717,-99.140373,0.147949219,-0.150390625,0.968505859,11:54.7,00:07.0
53,53,19.28673717,-99.140373,0.138671875,-0.116455078,1.01171875,11:54.7,00:07.0
54,54,19.28673717,-99.140373,0.161621094,-0.173583984,0.882324219,11:54.7,00:07.0
55,55,19.2867355,-99.140377,0.119628906,-0.138916016,0.98046875,11:54.7,00:07.1
56,56,19.2867355,-99.140377,0.159423828,-0.169189453,0.895751953,11:54.7,00:07.1
57,57,19.2867355,-99.140377,0.139648438,-0.118164063,0.970214844,11:54.7,00:07.1
58,58,19.2867355,-99.140377,0.149658203,-0.144775391,0.925048828,11:54.7,00:07.1
59,59,19.2867355,-99.140377,0.122802734,-0.121582031,0.983642578,11:54.8,00:07.1
60,60,19.2867355,-99.140377,0.146484375,-0.153564453,0.9453125,11:54.8,00:07.2
61,61,19.2867355,-99.140377,0.156982422,-0.198242188,0.908447266,11:54.8,00:07.2
62,62,19.2867355,-99.140377,0.141601563,-0.138183594,0.927001953,11:54.8,00:07.2
63,63,19.2867355,-99.140377,0.153564453,-0.129638672,0.965087891,11:54.8,00:07.2
64,64,19.28671983,-99.1403795,0.141113281,-0.161865234,0.954345703,11:55.2,00:07.6
65,65,19.28671983,-99.1403795,0.181152344,-0.072753906,0.922607422,11:55.4,00:07.7
66,66,19.28671983,-99.1403795,0.172119141,-0.048095703,0.916748047,11:55.4,00:07.7
67,67,19.28671983,-99.1403795,0.149902344,-0.015869141,0.911621094,11:55.4,00:07.8
68,68,19.28671983,-99.1403795,0.195556641,-0.021972656,0.943847656,11:55.5,00:07.9
69,69,19.28671983,-99.1403795,0.1640625,-0.030517578,0.944335938,11:55.6,00:07.9
70,70,19.28671983,-99.1403795,0.090332031,-0.026611328,0.915527344,11:55.6,00:08.0
71,71,19.28671983,-99.1403795,0.092529297,-0.049316406,0.951904297,11:55.7,00:08.1
72,72,19.28671983,-99.1403795,0.110351563,-0.05859375,0.929443359,11:55.7,00:08.1
73,73,19.28668883,-99.14037967,0.151611328,0.022460938,0.897949219,11:56.2,00:08.6
74,74,19.28668883,-99.14037967,0.103759766,0.085205078,0.887695313,11:56.3,00:08.6
75,75,19.28668883,-99.14037967,0.125488281,0.148681641,0.852050781,11:56.4,00:08.7
76,76,19.28668883,-99.14037967,0.045654297,-0.062988281,0.926269531,11:57.8,00:10.1
77,77,19.28668883,-99.14037967,0.139892578,-0.087158203,0.935302734,11:57.8,00:10.2
78,78,19.28668883,-99.14037967,0.182128906,-0.094238281,0.907470703,11:57.8,00:10.2
79,79,19.28668883,-99.14037967,0.152099609,-0.072265625,0.892089844,11:57.9,00:10.2
80,80,19.28668883,-99.14037967,0.120849609,-0.082275391,0.826171875,11:57.9,00:10.2
81,81,19.28668883,-99.14037967,0.135742188,-0.020751953,0.955322266,11:57.9,00:10.3
82,82,19.28665067,-99.140376,0.229980469,-0.065917969,0.906982422,11:57.9,00:10.3
83,83,19.28665067,-99.140376,0.275390625,-0.088134766,0.833007813,11:57.9,00:10.3
84,84,19.28665067,-99.140376,0.194580078,-0.114257813,0.896728516,11:58.0,00:10.3
85,85,19.28665067,-99.140376,0.162841797,-0.088134766,0.854003906,11:58.0,00:10.4
86,86,19.28665067,-99.140376,0.147216797,-0.104736328,0.898681641,11:58.0,00:10.4
87,87,19.28665067,-99.140376,0.106201172,-0.088378906,0.957519531,11:58.0,00:10.4
88,88,19.28665067,-99.140376,0.066162109,-0.124023438,1.084960938,11:58.1,00:10.4
89,89,19.28665067,-99.140376,0.013427734,-0.168457031,1.046142578,11:58.1,00:10.4
90,90,19.28665067,-99.140376,-0.010742188,-0.129638672,1.074951172,11:58.1,00:10.5
91,91,19.28660417,-99.14037667,0.093261719,-0.108398438,0.856201172,11:58.2,00:10.6
92,92,19.28660417,-99.14037667,0.122070313,-0.024414063,0.937011719,11:58.3,00:10.6
93,93,19.28660417,-99.14037667,0.125732422,-0.014160156,0.971191406,11:58.3,00:10.7
94,94,19.28660417,-99.14037667,0.150634766,-0.074707031,1.010498047,11:58.4,00:10.8
95,95,19.28660417,-99.14037667,0.061035156,-0.014892578,0.990234375,11:58.5,00:10.9
96,96,19.28660417,-99.14037667,0.161621094,-0.071289063,0.854248047,11:58.6,00:10.9
97,97,19.28660417,-99.14037667,0.064941406,-0.125976563,0.891845703,11:58.6,00:11.0
98,98,19.28660417,-99.14037667,0.057617188,0.010498047,0.930419922,11:58.7,00:11.1
99,99,19.28660417,-99.14037667,0.138671875,-0.110107422,0.885009766,11:58.7,00:11.1
100,100,19.2865465,-99.14037217,0.147216797,-0.036621094,0.911132813,11:59.2,00:11.6
101,101,19.2865465,-99.14037217,0.093261719,0.078125,0.883544922,12:00.5,00:12.9
102,102,19.2865465,-99.14037217,0.086914063,0.077636719,0.863037109,12:00.5,00:12.9
103,103,19.2865465,-99.14037217,0.054931641,0.149414063,0.962646484,12:00.6,00:12.9
104,104,19.2865465,-99.14037217,0.023193359,0.11328125,0.987060547,12:00.6,00:13.0
105,105,19.2865465,-99.14037217,0.062988281,0.068847656,0.926025391,12:00.6,00:13.0
106,106,19.2865465,-99.14037217,0.074707031,0.095703125,0.963867188,12:00.6,00:13.0
107,107,19.2865465,-99.14037217,0.08984375,0.163085938,0.905517578,12:00.6,00:13.0
108,108,19.2865465,-99.14037217,0.116210938,0.050537109,0.773193359,12:00.6,00:13.0
109,109,19.28647983,-99.14037583,0.085205078,0.131347656,0.870117188,12:00.7,00:13.0
110,110,19.28647983,-99.14037583,0.061767578,0.088623047,0.957763672,12:00.7,00:13.0
111,111,19.28647983,-99.14037583,0.020751953,0.126220703,1.020996094,12:00.7,00:13.1
112,112,19.28647983,-99.14037583,0.087646484,0.043212891,0.920166016,12:00.7,00:13.1
113,113,19.28647983,-99.14037583,0.121582031,0.137939453,0.899902344,12:00.7,00:13.1
114,114,19.28647983,-99.14037583,0.081054688,0.152587891,0.996826172,12:00.7,00:13.1
115,115,19.28647983,-99.14037583,0.056884766,0.16796875,0.904296875,12:00.8,00:13.1
116,116,19.28647983,-99.14037583,0.086914063,0.162597656,0.909423828,12:00.8,00:13.1
117,117,19.28647983,-99.14037583,0.149169922,0.180664063,0.861083984,12:00.8,00:13.2
118,118,19.286411,-99.14038017,0.070068359,0.205810547,0.882080078,12:01.2,00:13.6
119,119,19.286411,-99.14038017,0.178466797,0.025634766,0.905517578,12:01.3,00:13.6
120,120,19.286411,-99.14038017,0.173583984,0.031005859,0.9296875,12:01.3,00:13.7
121,121,19.286411,-99.14038017,0.165039063,0.050292969,0.915283203,12:01.4,00:13.8
122,122,19.286411,-99.14038017,0.138427734,0.124511719,0.924560547,12:01.5,00:13.9
123,123,19.286411,-99.14038017,0.034667969,0.105224609,0.948730469,12:01.6,00:13.9
124,124,19.286411,-99.14038017,0.069580078,0.139892578,0.996582031,12:01.6,00:14.0
125,125,19.286411,-99.14038017,0.247314453,0.163574219,0.818847656,12:01.7,00:14.1
126,126,19.286411,-99.14038017,0.0859375,0.016601563,0.903076172,12:02.9,00:15.2
127,127,19.28634183,-99.140387,0.125244141,0.051757813,0.924316406,12:02.9,00:15.3
128,128,19.28634183,-99.140387,0.073242188,0.094482422,0.950927734,12:02.9,00:15.3
129,129,19.28634183,-99.140387,0.074951172,0.01953125,0.947265625,12:02.9,00:15.3
130,130,19.28634183,-99.140387,0.082275391,0.08203125,0.945556641,12:02.9,00:15.3
131,131,19.28634183,-99.140387,0.033691406,0.114746094,0.925537109,12:03.0,00:15.3
132,132,19.28634183,-99.140387,0.116210938,0.083496094,0.902099609,12:03.0,00:15.3
133,133,19.28634183,-99.140387,0.175537109,-0.005615234,0.882080078,12:03.0,00:15.3
134,134,19.28634183,-99.140387,0.126708984,0.074462891,0.819580078,12:03.0,00:15.4
135,135,19.28634183,-99.140387,0.084472656,0.143310547,1.041992188,12:03.0,00:15.4
136,136,19.28627517,-99.14039233,0.063232422,0.112304688,0.992919922,12:03.2,00:15.6
137,137,19.28627517,-99.14039233,0.106689453,0.071044922,0.892578125,12:03.3,00:15.6
138,138,19.28627517,-99.14039233,0.07421875,0.014892578,0.848632813,12:03.3,00:15.7
139,139,19.28627517,-99.14039233,0.153076172,-0.009033203,0.876953125,12:03.4,00:15.8
140,140,19.28627517,-99.14039233,0.154785156,0.085205078,0.860595703,12:03.5,00:15.9
141,141,19.28627517,-99.14039233,0.094726563,0.135742188,0.923095703,12:03.6,00:15.9
142,142,19.28627517,-99.14039233,0.173583984,0.141601563,0.943359375,12:03.6,00:16.0
143,143,19.28627517,-99.14039233,0.072509766,0.154052734,0.927490234,12:03.7,00:16.1
144,144,19.28627517,-99.14039233,0.094482422,0.114746094,0.933105469,12:03.7,00:16.1
145,145,19.286208,-99.14040167,0.135498047,0.142578125,0.997070313,12:04.2,00:16.6
146,146,19.286208,-99.14040167,0.099121094,0.078369141,0.778320313,12:04.3,00:16.6
147,147,19.286208,-99.14040167,0.144775391,0.088867188,0.866943359,12:04.3,00:16.7
148,148,19.286208,-99.14040167,0.092529297,0.108886719,0.897949219,12:04.4,00:16.8
149,149,19.286208,-99.14040167,0.122314453,0.118408203,0.977783203,12:04.5,00:16.9
150,150,19.286208,-99.14040167,0.032958984,0.159667969,1.010253906,12:04.6,00:16.9
151,151,19.286208,-99.14040167,0.114501953,0.111816406,0.877197266,12:05.9,00:18.3
152,152,19.286208,-99.14040167,0.166015625,0.051757813,0.873535156,12:05.9,00:18.3
153,153,19.286208,-99.14040167,0.135986328,0.12890625,0.829833984,12:05.9,00:18.3
154,154,19.28614033,-99.14041167,0.135498047,0.086669922,0.943847656,12:06.0,00:18.3
155,155,19.28614033,-99.14041167,0.12109375,0.072265625,0.84765625,12:06.0,00:18.3
156,156,19.28614033,-99.14041167,0.031494141,0.136474609,0.917724609,12:06.0,00:18.3
157,157,19.28614033,-99.14041167,0.075927734,0.048339844,0.927978516,12:06.0,00:18.4
158,158,19.28614033,-99.14041167,0.114013672,0.067138672,0.911865234,12:06.0,00:18.4
159,159,19.28614033,-99.14041167,0.068603516,0.079833984,0.935546875,12:06.0,00:18.4
160,160,19.28614033,-99.14041167,0.156738281,0.024169922,0.870605469,12:06.1,00:18.4
161,161,19.28614033,-99.14041167,0.155273438,0.102050781,0.947509766,12:06.1,00:18.4
162,162,19.28614033,-99.14041167,0.144287109,0.144042969,0.893310547,12:06.1,00:18.5
163,163,19.2860725,-99.14041617,0.056396484,0.096679688,1.019775391,12:06.2,00:18.6
164,164,19.2860725,-99.14041617,0.061523438,0.049560547,0.927978516,12:06.3,00:18.6
165,165,19.2860725,-99.14041617,0.679443359,-0.073486328,0.635498047,12:06.4,00:18.7
166,166,19.2860725,-99.14041617,0.029296875,0.091552734,0.860595703,12:06.4,00:18.8
167,167,19.2860725,-99.14041617,-0.569580078,0.379882813,1.091064453,12:06.5,00:18.9
168,168,19.2860725,-99.14041617,-0.106689453,0.429443359,0.948486328,12:06.6,00:18.9
169,169,19.2860725,-99.14041617,0.23828125,0.117431641,0.96484375,12:06.6,00:19.0
170,170,19.2860725,-99.14041617,0.599609375,0.356445313,0.635009766,12:06.7,00:19.1
171,171,19.2860725,-99.14041617,0.3046875,0.158447266,0.829345703,12:06.8,00:19.1
172,172,19.28600533,-99.14042517,0.128173828,0.172119141,0.970214844,12:07.2,00:19.6
173,173,19.28600533,-99.14042517,0.170166016,0.119873047,0.876953125,12:07.3,00:19.6
174,174,19.28600533,-99.14042517,0.108154297,0.113769531,0.819335938,12:07.4,00:19.7
175,175,19.28600533,-99.14042517,0.155029297,0.069824219,0.949707031,12:07.4,00:19.8
176,176,19.28600533,-99.14042517,0.104736328,0.032958984,0.991699219,12:08.9,00:21.3
177,177,19.28600533,-99.14042517,0.110351563,0.068847656,0.948974609,12:08.9,00:21.3
178,178,19.28600533,-99.14042517,0.110595703,0.053955078,0.960205078,12:08.9,00:21.3
179,179,19.28600533,-99.14042517,0.134521484,0.090332031,0.968994141,12:08.9,00:21.3
180,180,19.28600533,-99.14042517,0.143310547,0.043701172,0.959228516,12:09.0,00:21.3
181,181,19.28593983,-99.1404385,0.132324219,0.036376953,0.899902344,12:09.0,00:21.4
182,182,19.28593983,-99.1404385,0.139160156,0.057128906,0.918945313,12:09.0,00:21.4
183,183,19.28593983,-99.1404385,0.121337891,0.023193359,0.883056641,12:09.1,00:21.4
184,184,19.28593983,-99.1404385,0.102294922,0.087158203,0.958007813,12:09.1,00:21.4
185,185,19.28593983,-99.1404385,0.102783203,0.083251953,0.954833984,12:09.1,00:21.5
186,186,19.28593983,-99.1404385,0.135742188,0.078125,0.983886719,12:09.1,00:21.5
187,187,19.28593983,-99.1404385,0.051757813,0.068359375,0.956298828,12:09.1,00:21.5
188,188,19.28593983,-99.1404385,0.117675781,-0.018798828,0.941162109,12:09.2,00:21.5
189,189,19.28593983,-99.1404385,0.121582031,0.095458984,0.923339844,12:09.2,00:21.6
190,190,19.2858705,-99.14044667,0.096923828,-0.007080078,0.942382813,12:09.3,00:21.6
191,191,19.2858705,-99.14044667,0.139892578,0.076171875,0.920166016,12:09.3,00:21.6
192,192,19.2858705,-99.14044667,0.064697266,0.076416016,0.925048828,12:09.4,00:21.7
193,193,19.2858705,-99.14044667,0.115478516,0.027099609,0.873291016,12:09.4,00:21.8
194,194,19.2858705,-99.14044667,0.159423828,0.081298828,0.884277344,12:09.5,00:21.9
195,195,19.2858705,-99.14044667,0.097412109,0.056152344,0.931640625,12:09.6,00:21.9
196,196,19.2858705,-99.14044667,0.129150391,0.079589844,0.924316406,12:09.8,00:22.2
197,197,19.2858705,-99.14044667,0.139404297,0.091308594,0.858886719,12:09.8,00:22.2
198,198,19.2858705,-99.14044667,0.137939453,0.029296875,0.891113281,12:09.9,00:22.2
199,199,19.285797,-99.1404555,0.184082031,0.088623047,0.881103516,12:10.2,00:22.6
200,200,19.285797,-99.1404555,0.098632813,0.041259766,0.991699219,12:10.3,00:22.6
201,201,19.285797,-99.1404555,0.199707031,0.017333984,0.913818359,12:11.8,00:24.2
202,202,19.285797,-99.1404555,0.140136719,0.104003906,0.845458984,12:11.8,00:24.2
203,203,19.285797,-99.1404555,0.086425781,0.169433594,0.956787109,12:11.8,00:24.2
204,204,19.285797,-99.1404555,0.085205078,0.081542969,0.872314453,12:11.8,00:24.2
205,205,19.285797,-99.1404555,0.185791016,0.058105469,0.890136719,12:11.9,00:24.2
206,206,19.285797,-99.1404555,0.137207031,0.019775391,0.9296875,12:11.9,00:24.2
207,207,19.285797,-99.1404555,0.205810547,0.081787109,0.794921875,12:11.9,00:24.3
208,208,19.285721,-99.14046217,0.139404297,0.118408203,0.825195313,12:11.9,00:24.3
209,209,19.285721,-99.14046217,0.120605469,0.135253906,0.821777344,12:11.9,00:24.3
210,210,19.285721,-99.14046217,0.062744141,0.122070313,0.949462891,12:11.9,00:24.3
211,211,19.285721,-99.14046217,0.126708984,0.072998047,0.8828125,12:11.9,00:24.3
212,212,19.285721,-99.14046217,0.084472656,0.124267578,0.924072266,12:12.0,00:24.3
213,213,19.285721,-99.14046217,0.141845703,0.087402344,1.039794922,12:12.0,00:24.3
214,214,19.285721,-99.14046217,0.112548828,0.043457031,0.861816406,12:12.0,00:24.4
215,215,19.285721,-99.14046217,0.122070313,0.084472656,0.994873047,12:12.0,00:24.4
216,216,19.285721,-99.14046217,0.126708984,0.121826172,0.9140625,12:12.0,00:24.4
217,217,19.28564483,-99.14046517,0.03515625,0.155029297,1.001464844,12:12.2,00:24.6
218,218,19.28564483,-99.14046517,0.101074219,0.093261719,0.98046875,12:12.3,00:24.6
219,219,19.28564483,-99.14046517,0.015136719,0.100830078,0.875488281,12:12.4,00:24.7
220,220,19.28564483,-99.14046517,0.116699219,0.125,1.000488281,12:12.4,00:24.8
221,221,19.28564483,-99.14046517,0.136230469,0.135253906,0.961425781,12:12.5,00:24.9
222,222,19.28564483,-99.14046517,0.177490234,0.111816406,0.828857422,12:12.6,00:24.9
223,223,19.28564483,-99.14046517,0.054443359,0.156005859,0.812255859,12:12.6,00:25.0
224,224,19.28564483,-99.14046517,0.168212891,0.124511719,0.893310547,12:12.7,00:25.1
225,225,19.28564483,-99.14046517,0.174560547,0.129882813,0.878173828,12:12.8,00:25.1
226,226,19.28557183,-99.14047517,0.158935547,0.099853516,0.782226563,12:14.2,00:26.6
227,227,19.28557183,-99.14047517,0.239257813,-0.086669922,0.971679688,12:14.2,00:26.6
228,228,19.28557183,-99.14047517,-0.107177734,-0.184570313,1.233154297,12:14.3,00:26.6
229,229,19.28557183,-99.14047517,-0.036621094,-0.377441406,1.216064453,12:14.3,00:26.6
230,230,19.28557183,-99.14047517,0.113525391,-0.144042969,0.983642578,12:14.3,00:26.7
231,231,19.28557183,-99.14047517,0.284423828,0.000488281,0.881591797,12:14.3,00:26.7
232,232,19.28557183,-99.14047517,-0.074707031,-0.061279297,1.023681641,12:14.3,00:26.7
233,233,19.28557183,-99.14047517,0.138427734,-0.065917969,0.878173828,12:14.4,00:26.7
234,234,19.28557183,-99.14047517,0.223144531,-0.046875,0.988525391,12:14.4,00:26.7
235,235,19.28550017,-99.140487,0.128173828,0.012207031,0.927734375,12:14.4,00:26.8
236,236,19.28550017,-99.140487,0.098632813,0.108154297,0.834716797,12:14.4,00:26.8
237,237,19.28550017,-99.140487,0.166503906,0.043457031,0.952148438,12:14.4,00:26.8
238,238,19.28550017,-99.140487,0.126708984,0.077392578,0.863769531,12:14.4,00:26.8
239,239,19.28550017,-99.140487,0.154785156,0.186767578,0.791259766,12:14.5,00:26.9
240,240,19.28550017,-99.140487,0.165283203,0.170654297,0.836425781,12:14.6,00:26.9
241,241,19.28550017,-99.140487,0.062255859,0.092041016,0.937255859,12:14.6,00:27.0
242,242,19.28550017,-99.140487,0.100097656,0.050048828,0.988037109,12:14.7,00:27.1
243,243,19.28550017,-99.140487,0.090332031,0.041259766,0.875488281,12:14.7,00:27.1
244,244,19.28542867,-99.14049617,0.1328125,0.108154297,0.936035156,12:15.2,00:27.6
245,245,19.28542867,-99.14049617,0.061279297,0.091064453,0.933837891,12:15.3,00:27.6
246,246,19.28542867,-99.14049617,-0.011962891,0.060302734,1.051269531,12:15.4,00:27.7
247,247,19.28542867,-99.14049617,0.084960938,0.007324219,0.956542969,12:15.4,00:27.8
248,248,19.28542867,-99.14049617,0.072753906,0.014648438,0.905517578,12:15.5,00:27.9
249,249,19.28542867,-99.14049617,0.213134766,0.032470703,0.812744141,12:15.6,00:27.9
250,250,19.28542867,-99.14049617,0.074707031,0.209716797,0.950439453,12:15.6,00:28.0
251,251,19.28542867,-99.14049617,0.09765625,0.112792969,0.979492188,12:19.5,00:31.9
252,252,19.28542867,-99.14049617,0.064208984,0.088378906,0.986816406,12:19.6,00:31.9
253,253,19.28535667,-99.14050883,0.062744141,0.114746094,0.952636719,12:19.6,00:31.9
254,254,19.28535667,-99.14050883,0.051513672,0.094970703,0.866210938,12:19.6,00:32.0
255,255,19.28535667,-99.14050883,0.129150391,0.083984375,0.882324219,12:19.6,00:32.0
256,256,19.28535667,-99.14050883,0.116699219,0.038818359,0.955566406,12:19.6,00:32.0
257,257,19.28535667,-99.14050883,0.045898438,0.078125,0.998291016,12:19.6,00:32.0
258,258,19.28535667,-99.14050883,0.078857422,0.109619141,0.959716797,12:19.7,00:32.0
259,259,19.28535667,-99.14050883,0.187255859,0.045166016,0.845458984,12:19.7,00:32.1
260,260,19.28535667,-99.14050883,0.15234375,0.048828125,0.876220703,12:19.7,00:32.1
261,261,19.28535667,-99.14050883,0.140869141,0.106933594,0.893066406,12:19.7,00:32.1
262,262,19.28528283,-99.14052433,0.080810547,0.033447266,0.883300781,12:19.8,00:32.1
263,263,19.28528283,-99.14052433,0.091552734,0.029785156,0.862548828,12:19.8,00:32.1
264,264,19.28528283,-99.14052433,0.079345703,0.075195313,0.909667969,12:19.8,00:32.2
265,265,19.28528283,-99.14052433,0.124267578,0.086669922,0.913574219,12:19.8,00:32.2
266,266,19.28528283,-99.14052433,0.063476563,0.059082031,1.004394531,12:19.8,00:32.2
267,267,19.28528283,-99.14052433,0.085205078,0.092041016,0.870605469,12:19.9,00:32.2
268,268,19.28528283,-99.14052433,0.146972656,0.075927734,0.79296875,12:19.9,00:32.2
269,269,19.28528283,-99.14052433,0.152099609,0.127929688,0.878417969,12:19.9,00:32.3
270,270,19.28528283,-99.14052433,0.161621094,0.130126953,0.923095703,12:19.9,00:32.3
271,271,19.28520867,-99.140539,0.085205078,0.067626953,0.934814453,12:19.9,00:32.3
272,272,19.28520867,-99.140539,0.091308594,0.15625,0.962402344,12:20.0,00:32.3
273,273,19.28520867,-99.140539,0.118164063,0.144042969,0.904052734,12:20.0,00:32.4
274,274,19.28520867,-99.140539,0.134521484,0.145507813,0.826904297,12:20.0,00:32.4
275,275,19.28520867,-99.140539,0.113769531,0.149169922,0.889404297,12:20.0,00:32.4
276,276,19.28520867,-99.140539,0.169921875,0.049316406,0.898925781,12:29.5,00:41.9
277,277,19.28520867,-99.140539,0.166992188,0.125732422,0.928466797,12:29.6,00:41.9
278,278,19.28520867,-99.140539,0.153076172,0.127929688,0.905761719,12:29.6,00:41.9
279,279,19.28520867,-99.140539,0.261474609,0.130126953,0.844238281,12:30.2,00:42.6
280,280,19.28513167,-99.14054517,0.241699219,0.105957031,0.787841797,12:30.3,00:42.6
281,281,19.28513167,-99.14054517,0.221679688,0.120605469,0.800537109,12:30.3,00:42.7
282,282,19.28513167,-99.14054517,0.047607422,0.178222656,1.028808594,12:30.4,00:42.7
283,283,19.28513167,-99.14054517,0.032714844,0.146240234,0.971435547,12:30.4,00:42.8
284,284,19.28513167,-99.14054517,0.038330078,0.138427734,0.922607422,12:30.4,00:42.8
285,285,19.28513167,-99.14054517,0.111572266,0.22265625,0.989746094,12:30.4,00:42.8
286,286,19.28513167,-99.14054517,0.20703125,-0.104980469,0.710693359,12:30.8,00:43.1
287,287,19.28513167,-99.14054517,0.193847656,0.281494141,0.901123047,12:31.7,00:44.1
288,288,19.28513167,-99.14054517,0.169189453,0.005859375,1.061279297,12:31.7,00:44.1
289,289,19.28505833,-99.14055367,0.159423828,0.170654297,1.068603516,12:31.7,00:44.1
290,290,19.28505833,-99.14055367,0.174072266,0.034912109,1.062011719,12:31.8,00:44.1
291,291,19.28505833,-99.14055367,0.259033203,0.089599609,1.078125,12:31.8,00:44.2
292,292,19.28505833,-99.14055367,0.218261719,-0.053710938,1.144287109,12:31.8,00:44.2
293,293,19.28505833,-99.14055367,0.216064453,0.029541016,1.136230469,12:31.9,00:44.2
294,294,19.28505833,-99.14055367,0.299560547,0.123779297,1.046630859,12:31.9,00:44.2
295,295,19.28505833,-99.14055367,0.276855469,0.134765625,1.021972656,12:31.9,00:44.3
296,296,19.28505833,-99.14055367,0.366210938,0.135498047,0.954345703,12:31.9,00:44.3
297,297,19.28505833,-99.14055367,0.351806641,0.220947266,0.9296875,12:31.9,00:44.3
298,298,19.284985,-99.14054767,0.331787109,0.199462891,0.864990234,12:32.0,00:44.3
299,299,19.284985,-99.14054767,0.415039063,0.197753906,0.773681641,12:32.0,00:44.4
300,300,19.284985,-99.14054767,0.430908203,0.230712891,0.789794922,12:32.0,00:44.4
