,index,Ax,Ay,Az
0,0,0.119384766,0.083251953,0.888183594
1,1,0.096923828,0.09765625,0.891601563
2,2,0.104736328,0.106445313,0.948974609
3,3,0.111816406,0.086669922,0.937988281
4,4,0.098876953,0.097167969,0.902587891
5,5,0.094970703,0.086181641,0.889160156
6,6,0.119873047,0.0703125,0.8984375
7,7,0.140380859,0.063964844,0.885253906
8,8,0.124267578,0.100830078,0.902587891
9,9,0.107910156,0.103027344,0.894287109
10,10,0.117431641,0.096191406,0.931884766
11,11,0.099853516,0.091552734,0.927978516
12,12,0.104003906,0.107910156,0.910644531
13,13,0.104248047,0.091552734,0.910888672
14,14,0.115478516,0.086914063,0.890869141
15,15,0.11328125,0.082275391,0.891113281
16,16,0.11328125,0.088378906,0.883789063
17,17,0.115478516,0.094970703,0.919921875
18,18,0.1015625,0.098388672,0.937988281
19,19,0.111083984,0.099609375,0.934082031
20,20,0.120361328,0.080322266,0.905029297
21,21,0.112792969,0.090087891,0.938964844
22,22,0.098144531,0.099121094,0.922607422
23,23,0.123046875,0.102539063,0.900634766
24,24,0.115966797,0.092041016,0.883789063
25,25,0.106445313,0.100097656,0.936279297
26,26,0.123535156,0.092285156,0.905029297
27,27,0.109375,0.080322266,0.913085938
28,28,0.123535156,0.079833984,0.887939453
29,29,0.111816406,0.083496094,0.897216797
30,30,0.108154297,0.093505859,0.934082031
31,31,0.105224609,0.091064453,0.953613281
32,32,0.11328125,0.105712891,0.903564453
33,33,0.099121094,0.098876953,0.931396484
34,34,0.110351563,0.091552734,0.889160156
35,35,0.119873047,0.094238281,0.935546875
36,36,0.121582031,0.097412109,0.931396484
37,37,0.107666016,0.094726563,0.942626953
38,38,0.098144531,0.094238281,0.932617188
39,39,0.124755859,0.107910156,0.930419922
40,40,0.099121094,0.088134766,0.930664063
41,41,0.108154297,0.092773438,0.903076172
42,42,0.108886719,0.091552734,0.910888672
43,43,0.108154297,0.093261719,0.881835938
44,44,0.111328125,0.069091797,0.890625
45,45,0.112060547,0.086914063,0.951660156
46,46,0.109130859,0.082763672,0.915283203
47,47,0.120361328,0.102050781,0.939697266
48,48,0.106201172,0.099853516,0.95703125
49,49,0.120361328,0.097900391,0.936279297
50,50,0.115966797,0.092773438,0.907958984
51,51,0.119873047,0.082763672,0.880126953
52,52,0.124755859,0.086914063,0.883789063
53,53,0.117919922,0.094726563,0.943603516
54,54,0.102539063,0.096923828,0.934570313
55,55,0.118164063,0.088867188,0.902099609
56,56,0.109863281,0.098144531,0.913330078
57,57,0.114257813,0.085449219,0.885009766
58,58,0.110351563,0.102050781,0.952880859
59,59,0.120605469,0.099853516,0.922119141
60,60,0.116943359,0.077392578,0.901123047
61,61,0.114501953,0.096679688,0.914306641
62,62,0.107421875,0.084716797,0.885986328
63,63,0.098144531,0.090087891,0.947509766
64,64,0.115966797,0.107666016,0.889404297
65,65,0.108886719,0.095703125,0.892089844
66,66,0.104736328,0.090820313,0.933105469
67,67,0.09375,0.0859375,0.9375
68,68,0.114990234,0.091796875,0.924072266
69,69,0.122558594,0.100097656,0.903564453
70,70,0.123779297,0.079833984,0.894287109
71,71,0.113525391,0.081298828,0.90234375
72,72,0.124267578,0.092285156,0.882080078
73,73,0.113769531,0.089599609,0.891357422
74,74,0.099853516,0.089355469,0.923583984
75,75,0.112304688,0.077636719,0.921630859
76,76,0.112060547,0.088867188,0.893554688
77,77,0.109375,0.08203125,0.950195313
78,78,0.118408203,0.105224609,0.931884766
79,79,0.098144531,0.093994141,0.933349609
80,80,0.115722656,0.072998047,0.882324219
81,81,0.119140625,0.108154297,0.920654297
82,82,0.107421875,0.093505859,0.895996094
83,83,0.111572266,0.069335938,0.905761719
84,84,0.115478516,0.100585938,0.893554688
85,85,0.109863281,0.090820313,0.901367188
86,86,0.117919922,0.072998047,0.885986328
87,87,0.119384766,0.083740234,0.889648438
88,88,0.106689453,0.101318359,0.925292969
89,89,0.109863281,0.081298828,0.908447266
90,90,0.117675781,0.082275391,0.873291016
91,91,0.140136719,0.087402344,0.878662109
92,92,0.122314453,0.089111328,0.889892578
93,93,0.108398438,0.098876953,0.895263672
94,94,0.104003906,0.100830078,0.918945313
95,95,0.095458984,0.103271484,0.936767578
96,96,0.102783203,0.094238281,0.933349609
97,97,0.106933594,0.102783203,0.940429688
98,98,0.117675781,0.087158203,0.9609375
99,99,0.105712891,0.084960938,0.8984375
100,100,0.122802734,0.090087891,0.912841797
101,101,0.111816406,0.090087891,0.924804688
102,102,0.100341797,0.082763672,0.911132813
103,103,0.117919922,0.079833984,0.891601563
104,104,0.104980469,0.08203125,0.890380859
105,105,0.113525391,0.086425781,0.920654297
106,106,0.124267578,0.080566406,0.903076172
107,107,0.098876953,0.093994141,0.947021484
108,108,0.109863281,0.108886719,0.916015625
109,109,0.091552734,0.12109375,0.934082031
110,110,0.112792969,0.105957031,0.940673828
111,111,0.109863281,0.08984375,0.887939453
112,112,0.11328125,0.095947266,0.952392578
113,113,0.114990234,0.090576172,0.915527344
114,114,0.118408203,0.099853516,0.875
115,115,0.115722656,0.0859375,0.903320313
116,116,0.1171875,0.084228516,0.904296875
117,117,0.119873047,0.103271484,0.887207031
118,118,0.095458984,0.078613281,0.874267578
119,119,0.116455078,0.075927734,0.883056641
120,120,0.105957031,0.079101563,0.883300781
121,121,0.120849609,0.079833984,0.921142578
122,122,0.094238281,0.087646484,0.938720703
123,123,0.106689453,0.082275391,0.941162109
124,124,0.094238281,0.094238281,0.934570313
125,125,0.115478516,0.093017578,0.878662109
126,126,0.116455078,0.077636719,0.911621094
127,127,0.114990234,0.084716797,0.884765625
128,128,0.118408203,0.097167969,0.874511719
129,129,0.112792969,0.08203125,0.930175781
130,130,0.117919922,0.091064453,0.875488281
131,131,0.102050781,0.107421875,0.894775391
132,132,0.110839844,0.083984375,0.940917969
133,133,0.098388672,0.104492188,0.930419922
134,134,0.10546875,0.094726563,0.9375
135,135,0.108154297,0.094238281,0.944580078
136,136,0.116699219,0.096923828,0.954345703
137,137,0.107666016,0.103271484,0.938720703
138,138,0.097167969,0.078613281,0.894287109
139,139,0.110839844,0.102294922,0.8984375
140,140,0.100585938,0.104492188,0.937744141
141,141,0.112060547,0.107910156,0.915527344
142,142,0.113525391,0.086914063,0.881103516
143,143,0.097900391,0.083740234,0.891357422
144,144,0.099853516,0.093994141,0.936279297
145,145,0.104736328,0.093261719,0.934570313
146,146,0.114257813,0.106689453,0.941650391
147,147,0.120605469,0.086669922,0.930908203
148,148,0.107910156,0.084472656,0.918701172
149,149,0.124755859,0.086425781,0.889404297
150,150,0.112792969,0.098632813,0.939453125
151,151,0.095703125,0.09765625,0.949707031
152,152,0.116943359,0.097412109,0.912353516
153,153,0.101806641,0.09375,0.948730469
154,154,0.113525391,0.098144531,0.903076172
155,155,0.112304688,0.086181641,0.895019531
156,156,0.114990234,0.090087891,0.9296875
157,157,0.11328125,0.087890625,0.889892578
158,158,0.120361328,0.091308594,0.888916016
159,159,0.108398438,0.105957031,0.936279297
160,160,0.102294922,0.08984375,0.900390625
161,161,0.112060547,0.097167969,0.940185547
162,162,0.119873047,0.090820313,0.920898438
163,163,0.118652344,0.080322266,0.909179688
164,164,0.103271484,0.096435547,0.928466797
165,165,0.099121094,0.106201172,0.942626953
166,166,0.100341797,0.098876953,0.929931641
167,167,0.095703125,0.095947266,0.926025391
168,168,0.105712891,0.084228516,0.923828125
169,169,0.111572266,0.096923828,0.885498047
170,170,0.121582031,0.082519531,0.922851563
171,171,0.123779297,0.086181641,0.884765625
172,172,0.12109375,0.079345703,0.881347656
173,173,0.112304688,0.080322266,0.901855469
174,174,0.113769531,0.079101563,0.917724609
175,175,0.094726563,0.103759766,0.927490234
176,176,0.1015625,0.095214844,0.922119141
177,177,0.123535156,0.083984375,0.933837891
178,178,0.098632813,0.098144531,0.94140625
179,179,0.130615234,0.093261719,0.900146484
180,180,0.097412109,0.0859375,0.896484375
181,181,0.112792969,0.091308594,0.883300781
182,182,0.122558594,0.080322266,0.888916016
183,183,0.1015625,0.089111328,0.938964844
184,184,0.114257813,0.086425781,0.903564453
185,185,0.094482422,0.090820313,0.887451172
186,186,0.120849609,0.107177734,0.923095703
187,187,0.113769531,0.108154297,0.876220703
188,188,0.094482422,0.09375,0.948730469
189,189,0.101318359,0.087402344,0.940429688
190,190,0.100341797,0.085449219,0.920654297
191,191,0.112792969,0.08984375,0.919677734
192,192,0.113525391,0.078125,0.916259766
193,193,0.126708984,0.084960938,0.882568359
194,194,0.124023438,0.080322266,0.89453125
195,195,0.12890625,0.074707031,0.929199219
196,196,0.108642578,0.078857422,0.923828125
197,197,0.107421875,0.098388672,0.879394531
198,198,0.118652344,0.091552734,0.887939453
199,199,0.110839844,0.084716797,0.889892578
200,200,0.103271484,0.108642578,0.913574219
201,201,0.098632813,0.094482422,0.928466797
202,202,0.111572266,0.096679688,0.896484375
203,203,0.104003906,0.102294922,0.924072266
204,204,0.106933594,0.091308594,0.884033203
205,205,0.110107422,0.088867188,0.945068359
206,206,0.111328125,0.103027344,0.895507813
207,207,0.121826172,0.091308594,0.908203125
208,208,0.11328125,0.099365234,0.940673828
209,209,0.117675781,0.092529297,0.883544922
210,210,0.100341797,0.096923828,0.938964844
211,211,0.130371094,0.068847656,0.890625
212,212,0.106689453,0.106201172,0.899902344
213,213,0.118652344,0.104003906,0.881591797
214,214,0.109619141,0.091064453,0.919677734
215,215,0.111328125,0.096435547,0.927001953
216,216,0.12890625,0.082275391,0.886474609
217,217,0.1328125,0.088867188,0.875976563
218,218,0.106445313,0.092773438,0.904296875
219,219,0.099609375,0.101806641,0.92578125
220,220,0.109130859,0.101806641,0.940673828
221,221,0.099121094,0.109130859,0.927246094
222,222,0.101074219,0.099121094,0.931640625
223,223,0.112304688,0.095214844,0.927490234
224,224,0.094482422,0.09765625,0.946289063
225,225,0.115478516,0.092041016,0.935058594
226,226,0.111816406,0.087890625,0.942138672
227,227,0.109619141,0.091552734,0.912109375
228,228,0.110839844,0.085205078,0.910644531
229,229,0.114257813,0.108886719,0.890625
230,230,0.105224609,0.093017578,0.914306641
231,231,0.122558594,0.089599609,0.878662109
232,232,0.1015625,0.099121094,0.937744141
233,233,0.105957031,0.105957031,0.948730469
234,234,0.131835938,0.065429688,0.89453125
235,235,0.140380859,0.087402344,0.907714844
236,236,0.104980469,0.103759766,0.916992188
237,237,0.101806641,0.109375,0.940429688
238,238,0.101318359,0.099121094,0.927978516
239,239,0.094482422,0.12109375,0.952392578
240,240,0.103759766,0.092529297,0.920410156
241,241,0.119873047,0.099853516,0.912353516
242,242,0.126464844,0.088134766,0.924316406
243,243,0.106689453,0.089355469,0.881591797
244,244,0.107910156,0.081787109,0.903076172
245,245,0.120117188,0.075683594,0.901123047
246,246,0.121582031,0.076171875,0.888916016
247,247,0.109130859,0.087158203,0.923339844
248,248,0.118408203,0.063476563,0.90625
249,249,0.116210938,0.088378906,0.951904297
250,250,0.118652344,0.083251953,0.881103516
251,251,0.106445313,0.096191406,0.945800781
252,252,0.122802734,0.096923828,0.927978516
253,253,0.09375,0.085205078,0.917236328
254,254,0.122314453,0.098876953,0.938232422
255,255,0.123535156,0.071044922,0.896972656
256,256,0.122802734,0.083740234,0.916503906
257,257,0.104248047,0.089355469,0.927734375
258,258,0.122802734,0.089111328,0.875488281
259,259,0.109863281,0.086669922,0.894042969
260,260,0.102783203,0.098144531,0.925537109
261,261,0.120849609,0.073242188,0.931884766
262,262,0.116943359,0.103271484,0.927490234
263,263,0.094482422,0.092285156,0.915527344
264,264,0.110595703,0.092773438,0.895751953
265,265,0.122558594,0.088623047,0.875244141
266,266,0.11328125,0.086425781,0.905761719
267,267,0.115234375,0.08984375,0.948242188
268,268,0.115478516,0.086181641,0.931396484
269,269,0.097412109,0.095947266,0.946533203
270,270,0.102539063,0.107910156,0.918212891
271,271,0.109619141,0.1015625,0.931640625
272,272,0.108398438,0.082275391,0.870849609
273,273,0.110595703,0.107910156,0.904296875
274,274,0.118408203,0.088134766,0.874511719
275,275,0.096435547,0.098632813,0.933837891
276,276,0.113769531,0.086425781,0.916259766
277,277,0.116699219,0.091064453,0.9140625
278,278,0.096191406,0.090332031,0.923095703
279,279,0.124755859,0.081542969,0.884521484
280,280,0.097900391,0.096679688,0.93359375
281,281,0.119140625,0.085693359,0.937255859
282,282,0.094482422,0.096191406,0.899169922
283,283,0.101806641,0.096679688,0.928710938
284,284,0.108642578,0.067871094,0.90234375
285,285,0.120605469,0.082275391,0.907958984
286,286,0.128417969,0.076416016,0.869384766
287,287,0.099609375,0.091308594,0.946289063
288,288,0.119873047,0.081787109,0.917480469
289,289,0.117431641,0.082275391,0.912353516
290,290,0.112304688,0.107666016,0.916503906
291,291,0.118408203,0.098876953,0.936035156
292,292,0.108886719,0.097900391,0.941162109
293,293,0.109375,0.098632813,0.911621094
294,294,0.097412109,0.103759766,0.90625
295,295,0.104980469,0.102050781,0.901367188
296,296,0.116210938,0.066894531,0.893798828
297,297,0.114013672,0.088134766,0.919677734
298,298,0.1015625,0.085693359,0.91015625
299,299,0.116943359,0.078369141,0.928710938
300,0,0.118408203,0.0859375,0.892333984
301,1,0.123779297,0.079589844,0.902099609
302,2,0.115478516,0.082763672,0.924560547
303,3,0.109863281,0.088623047,0.938232422
304,4,0.114501953,0.086669922,0.928955078
305,5,0.114990234,0.081787109,0.885009766
306,6,0.106933594,0.091064453,0.906738281
307,7,0.123291016,0.090820313,0.91015625
308,8,0.109863281,0.093261719,0.886230469
309,9,0.111328125,0.104492188,0.895996094
310,10,0.103271484,0.099365234,0.924560547
311,11,0.10546875,0.087158203,0.902099609
312,12,0.108886719,0.081787109,0.869628906
313,13,0.105957031,0.092529297,0.905517578
314,14,0.096679688,0.092773438,0.934326172
315,15,0.109130859,0.092041016,0.943359375
316,16,0.101806641,0.09375,0.932373047
317,17,0.122070313,0.100097656,0.922363281
318,18,0.104003906,0.098632813,0.944824219
319,19,0.102539063,0.092041016,0.942871094
320,20,0.118164063,0.106445313,0.899169922
321,21,0.133300781,0.090087891,0.885009766
322,22,0.122558594,0.088134766,0.90234375
323,23,0.101074219,0.104003906,0.941894531
324,24,0.102539063,0.102539063,0.941650391
325,25,0.122070313,0.082519531,0.904296875
326,26,0.101806641,0.088378906,0.929199219
327,27,0.123046875,0.07421875,0.891601563
328,28,0.122314453,0.094238281,0.937255859
329,29,0.104980469,0.079589844,0.941894531
330,30,0.139160156,0.066162109,0.868408203
331,31,0.097412109,0.086914063,0.942871094
332,32,0.111328125,0.08203125,0.905517578
333,33,0.122802734,0.085449219,0.893798828
334,34,0.113037109,0.084716797,0.875488281
335,35,0.115966797,0.083496094,0.938964844
336,36,0.082275391,0.080322266,0.945800781
337,37,0.105224609,0.090820313,0.918457031
338,38,0.125244141,0.087890625,0.887451172
339,39,0.123779297,0.084228516,0.895507813
340,40,0.116210938,0.0859375,0.932373047
341,41,0.108886719,0.090087891,0.939697266
342,42,0.119384766,0.080566406,0.956054688
343,43,0.096923828,0.095947266,0.903076172
344,44,0.118164063,0.086181641,0.919921875
345,45,0.11328125,0.051025391,0.882324219
346,46,0.105957031,0.069824219,0.907714844
347,47,0.110839844,0.058837891,0.91796875
348,48,0.106933594,0.046386719,0.939208984
349,49,0.115478516,0.038085938,0.944091797
350,50,0.1484375,-0.001220703,0.950927734
351,51,0.092773438,-0.0078125,0.964599609
352,52,0.106689453,-0.040527344,0.939941406
353,53,0.114990234,-0.050292969,0.895751953
354,54,0.098876953,-0.070068359,0.895996094
355,55,0.117431641,-0.052978516,0.92578125
356,56,0.127197266,-0.003417969,0.967529297
357,57,0.126953125,-0.018066406,0.931396484
358,58,0.107666016,-0.036132813,0.953369141
359,59,0.138916016,-0.023193359,0.894042969
360,60,0.121582031,-0.019775391,0.915527344
361,61,0.133789063,-0.072509766,0.872314453
362,62,0.095947266,-0.020507813,0.968994141
363,63,0.131591797,-0.029785156,0.906494141
364,64,0.095458984,-0.0703125,0.876464844
365,65,0.091796875,-0.032470703,0.950927734
366,66,0.05078125,-0.111328125,0.934570313
367,67,0.076416016,-0.029541016,0.963867188
368,68,0.136962891,-0.060791016,0.934570313
369,69,0.138427734,-0.007080078,0.900878906
370,70,0.137207031,-0.028320313,0.859619141
371,71,0.126220703,0.038330078,0.906738281
372,72,0.120849609,0.001220703,0.887451172
373,73,0.107910156,0.033935547,0.879882813
374,74,0.053955078,0.079345703,0.936035156
375,75,0.024658203,0.085449219,0.951660156
376,76,0.015625,0.063232422,0.875732422
377,77,0.113525391,0.094726563,0.888427734
378,78,0.11328125,0.126953125,0.906982422
379,79,0.124755859,0.138427734,0.906494141
380,80,0.100341797,0.139160156,0.922119141
381,81,0.105957031,0.10546875,0.885498047
382,82,0.090087891,0.080810547,0.930908203
383,83,0.108154297,0.096191406,0.916259766
384,84,0.161376953,0.086914063,0.865478516
385,85,0.136962891,0.115234375,0.908691406
386,86,0.148193359,0.107910156,0.923339844
387,87,0.15234375,0.107177734,0.961914063
388,88,0.153808594,0.124755859,0.931640625
389,89,0.145019531,0.097167969,0.965087891
390,90,0.131347656,0.132324219,0.980224609
391,91,0.150146484,0.107421875,0.960205078
392,92,0.118164063,0.123779297,0.926757813
393,93,0.104736328,0.103759766,0.871826172
394,94,0.07421875,0.0859375,0.898681641
395,95,0.034667969,0.077392578,0.906982422
396,96,0.090576172,0.103759766,0.959228516
397,97,0.098144531,0.108154297,0.948242188
398,98,0.135498047,0.107666016,0.872070313
399,99,0.155761719,0.042236328,0.918701172
400,100,0.151611328,0.035888672,0.963623047
401,101,0.162841797,0.046142578,0.959228516
402,102,0.134765625,0.030761719,0.963134766
403,103,0.132568359,0.055908203,0.978759766
404,104,0.091308594,0.076904297,0.981445313
405,105,0.086425781,0.052490234,0.891845703
406,106,0.078613281,0.069335938,0.928710938
407,107,0.074951172,0.031982422,0.903808594
408,108,0.080810547,0.052734375,0.884765625
409,109,0.059082031,0.021972656,0.835205078
410,110,0.049560547,0.073242188,0.893066406
411,111,0.043701172,0.062988281,0.9375
412,112,0.103027344,0.072265625,0.871826172
413,113,0.116455078,0.063476563,0.895996094
414,114,0.116943359,0.048583984,0.908447266
415,115,0.085693359,0.055419922,0.906738281
416,116,0.133056641,0.070800781,0.979003906
417,117,0.105712891,0.126708984,0.895263672
418,118,0.109619141,0.09765625,0.862792969
419,119,0.089599609,0.065429688,0.881591797
420,120,0.124511719,0.069580078,0.919189453
421,121,0.093261719,0.155273438,0.949707031
422,122,0.134033203,0.114746094,0.861816406
423,123,0.110107422,0.0859375,0.862060547
424,124,0.131347656,0.080322266,0.829589844
425,125,0.182373047,0.129638672,0.870117188
426,126,0.191894531,0.107666016,0.857421875
427,127,0.169189453,0.128662109,0.881347656
428,128,0.138916016,0.086425781,0.881591797
429,129,0.143798828,0.092529297,0.915771484
430,130,0.124023438,0.054443359,0.866943359
431,131,0.143066406,0.094970703,0.890380859
432,132,0.122558594,0.087402344,0.920166016
433,133,0.116699219,0.132568359,0.890625
434,134,0.122070313,0.11328125,0.876464844
435,135,0.049804688,0.113769531,0.942871094
436,136,0.051757813,0.136230469,0.943359375
437,137,0.096679688,0.053955078,0.980224609
438,138,0.063964844,0.085693359,0.868896484
439,139,0.156982422,0.095214844,0.851806641
440,140,0.168457031,0.035644531,0.923339844
441,141,0.166748047,0.024902344,0.879882813
442,142,0.131347656,0.044677734,0.947753906
443,143,0.147460938,0.108642578,0.896484375
444,144,0.150878906,-0.015136719,0.893066406
445,145,0.150390625,0.017578125,0.851318359
446,146,0.114013672,0.064697266,0.905029297
447,147,0.096923828,0.096435547,0.919677734
448,148,0.123291016,0.130615234,0.908691406
449,149,0.112060547,0.045654297,0.921630859
450,150,0.106689453,0.011962891,0.91015625
451,151,0.095214844,0.035888672,0.952880859
452,152,0.110351563,0.031982422,0.902587891
453,153,0.095458984,0.040527344,0.944580078
454,154,0.085205078,0.032714844,0.906738281
455,155,0.097167969,0.037841797,0.933837891
456,156,0.099609375,0.051269531,0.958251953
457,157,0.125488281,0.024902344,0.862792969
458,158,0.084228516,0.030273438,0.894775391
459,159,0.087890625,0.020019531,0.949462891
460,160,0.155029297,0.071777344,0.890380859
461,161,0.138671875,0.051269531,0.919677734
462,162,0.098388672,0.069091797,0.909423828
463,163,0.129150391,0.031738281,0.864990234
464,164,0.135253906,0.042480469,0.874755859
465,165,0.122314453,0.039794922,0.9375
466,166,0.178955078,0.024902344,0.900146484
467,167,0.116210938,0.059326172,0.937255859
468,168,0.131103516,0.099365234,0.877197266
469,169,0.120605469,0.0703125,0.900634766
470,170,0.080566406,0.079345703,1.007568359
471,171,0.156005859,0.073486328,0.963623047
472,172,0.088134766,0.031982422,0.98046875
473,173,0.143554688,0.10546875,0.910400391
474,174,0.127685547,0.106201172,0.917236328
475,175,0.187011719,0.083740234,0.929199219
476,176,0.152832031,0.111816406,0.896972656
477,177,0.196777344,0.054199219,0.913330078
478,178,0.166259766,0.108154297,0.951416016
479,179,0.092773438,0.088134766,0.897949219
480,180,0.078369141,0.080322266,0.902832031
481,181,0.072509766,0.104736328,0.950439453
482,182,0.1328125,0.085449219,0.94140625
483,183,0.133544922,0.096435547,0.828369141
484,184,0.115478516,0.079345703,0.948486328
485,185,0.1171875,0.1171875,0.922119141
486,186,0.116455078,0.1015625,0.937744141
487,187,0.083007813,0.108642578,0.947021484
488,188,0.100097656,0.0625,0.907226563
489,189,0.114990234,0.067626953,0.868896484
490,190,0.137695313,0.104980469,0.846435547
491,191,0.089111328,0.101318359,0.886474609
492,192,0.13671875,0.063720703,0.883300781
493,193,0.093994141,0.083740234,0.949951172
494,194,0.070556641,0.138183594,0.906738281
495,195,0.115722656,0.122558594,0.924560547
496,196,0.094726563,0.113037109,0.907714844
497,197,0.180175781,0.104736328,0.952392578
498,198,0.131835938,0.127197266,0.956054688
499,199,0.116943359,0.077636719,0.894775391
500,200,0.179443359,0.080566406,0.895996094
501,201,0.152832031,0.093261719,0.894287109
502,202,0.135742188,0.100097656,0.961669922
503,203,0.138916016,0.0546875,0.915771484
504,204,0.134521484,0.102050781,0.958007813
505,205,0.147216797,0.094238281,0.872558594
506,206,0.137695313,0.099121094,0.939941406
507,207,0.128173828,0.103027344,0.920654297
508,208,0.120361328,0.103515625,0.9375
509,209,0.092041016,0.074707031,0.852539063
510,210,0.137695313,0.104736328,0.932861328
511,211,0.049072266,0.10546875,0.955810547
512,212,0.063232422,0.08984375,0.938476563
513,213,0.080322266,0.122558594,0.921875
514,214,0.072021484,0.082763672,0.902832031
515,215,0.099609375,0.067382813,0.876464844
516,216,0.180908203,0.09765625,0.833984375
517,217,0.105957031,0.088134766,0.888183594
518,218,0.141845703,0.124755859,0.932617188
519,219,0.113525391,0.090087891,0.958740234
520,220,0.151123047,0.075439453,0.940673828
521,221,0.087890625,0.106445313,0.897705078
522,222,0.087646484,0.049072266,0.874755859
523,223,0.15234375,0.073974609,0.885742188
524,224,0.092529297,0.012939453,0.890380859
525,225,0.124511719,0.033447266,0.869140625
526,226,0.090332031,0.064697266,0.909179688
527,227,0.102539063,0.056152344,0.952636719
528,228,0.086425781,0.077880859,0.846191406
529,229,0.113769531,0.100341797,0.947265625
530,230,0.144042969,0.042480469,0.84375
531,231,0.145263672,0.068359375,0.931884766
532,232,0.144287109,0.088623047,0.935302734
533,233,0.138183594,0.083984375,0.898193359
534,234,0.109130859,0.083007813,0.94921875
535,235,0.097412109,0.057128906,0.857666016
536,236,0.119628906,0.024658203,0.84375
537,237,0.185058594,0.041503906,0.908447266
538,238,0.127197266,0.062988281,0.940429688
539,239,0.110107422,0.100341797,0.978515625
540,240,0.151611328,0.070556641,0.868896484
541,241,0.114501953,0.088134766,0.979736328
542,242,0.107177734,0.129394531,0.900878906
543,243,0.077392578,0.091796875,0.880615234
544,244,0.183105469,0.101074219,0.923095703
545,245,0.129882813,0.06640625,0.934082031
546,246,0.037109375,0.114746094,0.976806641
547,247,0.124023438,0.071777344,0.929199219
548,248,0.060058594,0.07421875,0.921386719
549,249,0.164306641,0.089111328,0.876464844
550,250,0.202392578,0.028808594,0.855224609
551,251,0.213623047,0.085449219,0.902587891
552,252,0.144287109,0.095214844,0.890625
553,253,0.106201172,0.103515625,0.9375
554,254,0.108642578,0.128417969,0.890380859
555,255,0.124511719,0.143798828,0.951171875
556,256,0.065429688,0.138183594,0.936035156
557,257,0.045654297,0.11328125,0.904785156
558,258,0.000976563,0.08203125,1.029541016
559,259,0.120849609,0.032470703,0.926025391
560,260,0.134521484,0.167480469,0.88671875
561,261,0.145263672,0.152587891,0.845214844
562,262,0.201904297,0.101318359,0.940429688
563,263,0.106445313,0.0625,0.96484375
564,264,0.164794922,0.095703125,0.910400391
565,265,0.135742188,0.094970703,0.880126953
566,266,0.116455078,0.123291016,0.911132813
567,267,0.073242188,0.0546875,0.930175781
568,268,0.086425781,0.108398438,0.950439453
569,269,0.138183594,0.125976563,0.964599609
570,270,0.127929688,0.091308594,0.935791016
571,271,0.136474609,0.069335938,0.922119141
572,272,0.152099609,0.128417969,0.940429688
573,273,0.147705078,0.061279297,0.952148438
574,274,0.100830078,0.073974609,0.980224609
575,275,0.169433594,0.052490234,0.921875
576,276,0.112548828,0.084716797,0.975585938
577,277,0.142333984,0.036376953,0.902587891
578,278,0.129882813,0.063232422,0.959960938
579,279,0.136962891,0.083496094,0.893310547
580,280,0.080078125,0.080322266,0.917724609
581,281,0.120117188,0.0390625,0.873535156
582,282,0.107421875,0.084472656,0.948730469
583,283,0.116943359,0.066894531,0.860351563
584,284,0.128173828,0.061279297,0.859130859
585,285,0.131347656,0.069824219,0.919189453
586,286,0.1640625,0.060791016,0.908203125
587,287,0.135253906,0.094482422,0.964599609
588,288,0.142822266,0.060058594,0.876708984
589,289,0.171386719,0.103271484,0.926269531
590,290,0.135253906,0.125488281,0.848388672
591,291,0.071044922,0.10546875,0.947753906
592,292,0.097412109,0.042724609,0.90234375
593,293,0.127685547,0.102050781,0.880126953
594,294,0.070556641,0.114501953,0.915283203
595,295,0.162841797,0.145507813,0.936523438
596,296,0.159912109,0.092529297,0.883544922
597,297,0.108886719,0.151855469,0.960693359
598,298,0.08984375,0.161621094,1.001708984
599,299,0.063232422,0.066894531,0.924560547
600,85,0.083984375,-0.074951172,0.92578125
601,86,0.12109375,-0.069335938,1.043212891
602,87,0.141113281,-0.093017578,0.887939453
603,88,0.167724609,-0.122802734,0.902832031
604,89,0.186279297,-0.082519531,0.916015625
605,90,0.182617188,-0.096679688,0.938964844
606,91,0.124511719,-0.0546875,0.902832031
607,92,0.104736328,-0.108398438,0.835449219
608,93,0.143066406,-0.029541016,0.899902344
609,94,0.120361328,0.044189453,0.870605469
610,95,0.124023438,0.110107422,0.882324219
611,96,0.004882813,0.192871094,0.979980469
612,97,0.072021484,0.021484375,0.810791016
613,98,0.026367188,0.075195313,0.900390625
614,99,0.025146484,0.065673828,0.900878906
615,100,0.130371094,-0.083007813,0.912841797
616,101,0.201660156,-0.088623047,0.905761719
617,102,0.103027344,-0.082275391,0.903076172
618,103,0.087402344,0.020263672,0.979248047
619,104,0.144042969,-0.127929688,0.788085938
620,105,0.009277344,-0.151611328,0.887695313
621,106,0.040283203,-0.090576172,0.918701172
622,107,-0.007080078,-0.004882813,0.905273438
623,108,0.100830078,0.012207031,0.937255859
624,109,0.085693359,-0.104736328,0.957763672
625,110,0.028320313,-0.052978516,0.873779297
626,111,-0.0078125,-0.101318359,0.918945313
627,112,0.016601563,-0.185058594,0.935546875
628,113,0.007568359,-0.176513672,0.974853516
629,114,0.002685547,-0.196533203,0.968994141
630,115,0.037353516,-0.177001953,0.992919922
631,116,0.205566406,-0.101318359,1.075439453
632,117,0.168457031,-0.138427734,1.092529297
633,118,0.099853516,-0.120605469,0.886474609
634,119,0.108886719,0.136962891,0.869873047
635,120,0.157714844,-0.039550781,0.821289063
636,121,0.09375,-0.015136719,0.810791016
637,122,0.117675781,-0.069091797,0.799560547
638,123,0.126220703,0.063964844,0.849609375
639,124,0.127197266,0.130371094,0.780761719
640,125,0.046875,0.223388672,0.927978516
641,126,0.092529297,0.145507813,0.900878906
642,127,0.090087891,0.150634766,0.896728516
643,128,0.113037109,0.152832031,0.993652344
644,129,0.082519531,0.150634766,0.830566406
645,130,0.088867188,0.112060547,1.00390625
646,131,0.040283203,0.164794922,0.936279297
647,132,0.135498047,0.037841797,0.925292969
648,133,0.173583984,0.168212891,0.854248047
649,134,0.239501953,0.172363281,0.845458984
650,135,0.19140625,0.145507813,0.930664063
651,136,0.103027344,0.142578125,0.935791016
652,137,0.101806641,0.003417969,0.981445313
653,138,0.186035156,0.06640625,0.769775391
654,139,0.02734375,0.126464844,0.913818359
655,140,0.163085938,0.090576172,0.848144531
656,141,0.114501953,0.075439453,0.9453125
657,142,0.070800781,0.086181641,0.950195313
658,143,0.19921875,0.078125,0.801513672
659,144,0.225341797,0.004394531,0.917480469
660,145,0.104248047,0.05078125,0.910644531
661,146,0.087646484,-0.020996094,0.895263672
662,147,0.239013672,0.031005859,0.776367188
663,148,0.020263672,0.123779297,1.067626953
664,149,0.26171875,0.054931641,0.846435547
665,150,0.085205078,0.171142578,0.985839844
666,151,0.058837891,0.068359375,0.904541016
667,152,0.110107422,-0.014160156,0.791748047
668,153,0.114257813,0.115966797,0.961425781
669,154,0.170410156,0.042724609,0.916503906
670,155,0.140380859,0.003417969,0.885009766
671,156,0.240234375,0.022216797,0.799072266
672,157,0.243652344,0.062011719,0.850585938
673,158,0.263916016,0.045654297,0.887207031
674,159,0.169433594,0.088623047,0.862548828
675,160,0.038085938,0.057617188,0.851806641
676,161,0.109130859,0.053466797,0.914306641
677,162,-0.051025391,0.134033203,1.024169922
678,163,0.080078125,0.008544922,0.802734375
679,164,0.152587891,0.152099609,0.972167969
680,165,0.094238281,0.1171875,0.907226563
681,166,0.103271484,0.047119141,0.980712891
682,167,0.146972656,0.102294922,0.888183594
683,168,0.252685547,0.085205078,1.0234375
684,169,0.071044922,0.126708984,1.032958984
685,170,0.117675781,0.064208984,0.863037109
686,171,0.172363281,0.029052734,0.849853516
687,172,0.206054688,0.047363281,0.826171875
688,173,-0.064208984,0.05859375,0.839355469
689,174,0.141601563,-0.065673828,0.915771484
690,175,0.122558594,0.164794922,0.907226563
691,176,0.031005859,0.157958984,0.909423828
692,177,0.098876953,0.112060547,1.031738281
693,178,0.1171875,0.044921875,0.923095703
694,179,0.117675781,0.1171875,0.919677734
695,180,0.114501953,0.029052734,0.948730469
696,181,0.159423828,0.04296875,0.923339844
697,182,0.119873047,0.090820313,0.919921875
698,183,0.088867188,0.025634766,0.813964844
699,184,0.107421875,0.075927734,0.848632813
700,185,0.081542969,0.111083984,0.923095703
701,186,0.061523438,0.086914063,0.912353516
702,187,0.067382813,0.052978516,0.923583984
703,188,0.050537109,0.154541016,0.984863281
704,189,0.13671875,0.131591797,0.866210938
705,190,0.032714844,0.086181641,0.94140625
706,191,0.092529297,0.221923828,0.994384766
707,192,0.129882813,0.058837891,0.819335938
708,193,0.187744141,0.062011719,0.755371094
709,194,0.244384766,0.084472656,0.927978516
710,195,0.138916016,0.125244141,0.841308594
711,196,0.222900391,0.13671875,0.949707031
712,197,0.084716797,0.105957031,0.9140625
713,198,0.067871094,0.174072266,0.958496094
714,199,0.08984375,0.071289063,0.972167969
715,200,0.131103516,0.122558594,0.941162109
716,201,0.126708984,0.04296875,0.888427734
717,202,0.195068359,0.019042969,0.883544922
718,203,0.162597656,0.130859375,0.837402344
719,204,0.060791016,0.094238281,0.789306641
720,205,0.109130859,0.034912109,0.975585938
721,206,0.1640625,0.030273438,0.854003906
722,207,0.093261719,0.112792969,1.090332031
723,208,0.1171875,0.0859375,0.936035156
724,209,0.168701172,0.002685547,0.853515625
725,210,0.143798828,0.021484375,0.945556641
726,211,0.153564453,0.023925781,0.884765625
727,212,0.161132813,0.0703125,0.894287109
728,213,0.102294922,0.090576172,0.967285156
729,214,0.089355469,0.035400391,0.952636719
730,215,0.066650391,0.068603516,1.042480469
731,216,0.049072266,0.091552734,0.886474609
732,217,0.088378906,0.130615234,0.873779297
733,218,0.082275391,0.156005859,1.018798828
734,219,0.107177734,0.08984375,0.922119141
735,220,0.077392578,0.065185547,0.852539063
736,221,0.085205078,0.048828125,1.059326172
737,222,0.14453125,0.0234375,0.899658203
738,223,0.115722656,0.083251953,0.757324219
739,224,0.131835938,0.070556641,0.835693359
740,225,-0.151611328,0.01953125,1.029296875
741,226,-0.007568359,0.052734375,0.939453125
742,227,0.086425781,0.154785156,0.916503906
743,228,0.102539063,0.134765625,0.790771484
744,229,0.006591797,0.151367188,0.946533203
745,230,0.203125,0.127197266,0.818847656
746,231,0.176025391,0.088623047,0.809814453
747,232,0.001464844,0.108886719,0.856933594
748,233,0.044189453,0.219726563,0.889892578
749,234,0.089111328,0.145507813,0.868896484
750,235,0.167724609,0.137695313,0.815429688
751,236,0.081542969,0.023193359,1.065429688
752,237,0.071533203,0.072753906,0.877197266
753,238,0.190917969,0.067138672,0.839355469
754,239,0.087646484,0.09765625,0.870605469
755,240,0.055419922,0.095458984,0.953369141
756,241,0.190673828,0.039550781,0.904785156
757,242,0.024169922,0.107666016,0.953125
758,243,0.09375,0.085693359,0.932861328
759,244,0.086425781,0.046386719,0.874755859
760,245,0.110107422,0.090087891,0.776367188
761,246,0.055419922,0.146240234,0.812988281
762,247,0.123535156,0.134277344,0.927734375
763,248,0.079345703,0.214111328,0.912109375
764,249,0.101074219,0.187255859,1.077636719
765,250,0.086669922,0.091552734,0.975585938
766,251,0.107177734,0.074462891,0.904785156
767,252,0.145751953,0.144775391,0.882324219
768,253,0.136962891,0.193847656,0.861328125
769,254,0.159912109,0.182617188,0.812988281
770,255,0.124755859,0.119873047,0.936767578
771,256,0.15625,0.093994141,0.834472656
772,257,0.097167969,0.114501953,0.928222656
773,258,0.125732422,0.112548828,0.896240234
774,259,0.063232422,0.186035156,0.846679688
775,260,0.103515625,0.108154297,0.894775391
776,261,0.093261719,0.203369141,0.934082031
777,262,0.1484375,0.115966797,0.838134766
778,263,0.108154297,0.131347656,0.945556641
779,264,0.160400391,0.147705078,0.823242188
780,265,0.156494141,0.097412109,0.92578125
781,266,0.104736328,0.149658203,0.910400391
782,267,0.097167969,0.167724609,1.006347656
783,268,0.170410156,0.011474609,0.914306641
784,269,0.104248047,0.200439453,0.95703125
785,270,0.085449219,0.065917969,0.750244141
786,271,0.104492188,0.159179688,0.930175781
787,272,0.302978516,0.482666016,0.753173828
788,273,0.342285156,-0.012207031,1.052246094
789,274,0.171630859,0.202392578,1.084716797
790,275,0.138427734,0.071533203,0.973632813
791,276,0.108398438,0.073242188,0.813476563
792,277,0.086425781,0.237792969,0.834472656
793,278,0.083251953,0.221435547,0.944824219
794,279,0.160644531,0.168945313,0.872070313
795,280,0.129882813,0.142333984,0.844726563
796,281,0.107421875,0.240722656,0.860839844
797,282,0.037109375,0.246337891,0.937744141
798,283,0.081298828,0.229248047,0.950927734
799,284,0.121337891,0.161132813,0.910888672
800,285,0.140625,0.156494141,0.896240234
801,286,0.111328125,0.167724609,0.930175781
802,287,0.094970703,0.19140625,0.926269531
803,288,0.151855469,0.201416016,0.932861328
804,289,0.114990234,0.248779297,0.933105469
805,290,0.083740234,0.192382813,0.942138672
806,291,0.088623047,0.193359375,0.893798828
807,292,0.071533203,0.238525391,0.960693359
808,293,0.124267578,0.246582031,0.899414063
809,294,0.077148438,0.290283203,0.945556641
810,295,0.091064453,0.284179688,0.876220703
811,296,0.090087891,0.278320313,0.892578125
812,297,0.092285156,0.244628906,0.853271484
813,298,0.105957031,0.272216797,0.907226563
814,299,0.214355469,0.092041016,0.863769531
815,300,0.149169922,0.165283203,0.906005859
816,301,0.117431641,0.131347656,0.921142578
817,302,0.118164063,0.126220703,0.883300781
818,303,0.096191406,0.122558594,0.982666016
819,304,0.040527344,0.128662109,0.968505859
820,305,0.071777344,0.118164063,0.912841797
821,306,0.100585938,0.125732422,0.877685547
822,307,0.180908203,0.112060547,0.917236328
823,308,0.182128906,0.119873047,0.888671875
824,309,0.190917969,0.080322266,0.868408203
825,310,0.145751953,0.099121094,0.9765625
826,311,0.120849609,0.065917969,0.922119141
827,312,0.135986328,0.055664063,0.902587891
828,313,0.122070313,0.09765625,0.926269531
829,314,0.158203125,0.032226563,0.955078125
830,315,0.137207031,0.100341797,0.862548828
831,316,0.121337891,0.130615234,0.993408203
832,317,0.153564453,0.141357422,0.921142578
833,318,0.170410156,0.135742188,0.846923828
834,319,0.141845703,0.139892578,0.928466797
835,320,0.12890625,0.040039063,0.872070313
836,321,0.090332031,0.127929688,0.924316406
837,322,0.1484375,0.122802734,0.926513672
838,323,0.146728516,0.069580078,0.875732422
839,324,0.124755859,0.076171875,0.846435547
840,85,0.083984375,-0.074951172,0.92578125
841,86,0.12109375,-0.069335938,1.043212891
842,87,0.141113281,-0.093017578,0.887939453
843,88,0.167724609,-0.122802734,0.902832031
844,89,0.186279297,-0.082519531,0.916015625
845,90,0.182617188,-0.096679688,0.938964844
846,91,0.124511719,-0.0546875,0.902832031
847,92,0.104736328,-0.108398438,0.835449219
848,93,0.143066406,-0.029541016,0.899902344
849,94,0.120361328,0.044189453,0.870605469
850,95,0.124023438,0.110107422,0.882324219
851,96,0.004882813,0.192871094,0.979980469
852,97,0.072021484,0.021484375,0.810791016
853,98,0.026367188,0.075195313,0.900390625
854,99,0.025146484,0.065673828,0.900878906
855,100,0.130371094,-0.083007813,0.912841797
856,101,0.201660156,-0.088623047,0.905761719
857,102,0.103027344,-0.082275391,0.903076172
858,103,0.087402344,0.020263672,0.979248047
859,104,0.144042969,-0.127929688,0.788085938
860,105,0.009277344,-0.151611328,0.887695313
861,106,0.040283203,-0.090576172,0.918701172
862,107,-0.007080078,-0.004882813,0.905273438
863,108,0.100830078,0.012207031,0.937255859
864,109,0.085693359,-0.104736328,0.957763672
865,110,0.028320313,-0.052978516,0.873779297
866,111,-0.0078125,-0.101318359,0.918945313
867,112,0.016601563,-0.185058594,0.935546875
868,113,0.007568359,-0.176513672,0.974853516
869,114,0.002685547,-0.196533203,0.968994141
870,115,0.037353516,-0.177001953,0.992919922
871,116,0.205566406,-0.101318359,1.075439453
872,117,0.168457031,-0.138427734,1.092529297
873,118,0.099853516,-0.120605469,0.886474609
874,119,0.108886719,0.136962891,0.869873047
875,120,0.157714844,-0.039550781,0.821289063
876,121,0.09375,-0.015136719,0.810791016
877,122,0.117675781,-0.069091797,0.799560547
878,123,0.126220703,0.063964844,0.849609375
879,124,0.127197266,0.130371094,0.780761719
880,125,0.046875,0.223388672,0.927978516
881,126,0.092529297,0.145507813,0.900878906
882,127,0.090087891,0.150634766,0.896728516
883,128,0.113037109,0.152832031,0.993652344
884,129,0.082519531,0.150634766,0.830566406
885,130,0.088867188,0.112060547,1.00390625
886,131,0.040283203,0.164794922,0.936279297
887,132,0.135498047,0.037841797,0.925292969
888,133,0.173583984,0.168212891,0.854248047
889,134,0.239501953,0.172363281,0.845458984
890,135,0.19140625,0.145507813,0.930664063
891,136,0.103027344,0.142578125,0.935791016
892,137,0.101806641,0.003417969,0.981445313
893,138,0.186035156,0.06640625,0.769775391
894,139,0.02734375,0.126464844,0.913818359
895,140,0.163085938,0.090576172,0.848144531
896,141,0.114501953,0.075439453,0.9453125
897,142,0.070800781,0.086181641,0.950195313
898,143,0.19921875,0.078125,0.801513672
899,144,0.225341797,0.004394531,0.917480469
900,0,0.107910156,0.086181641,0.884033203
901,1,0.097167969,0.101806641,0.912597656
902,2,0.112304688,0.09765625,0.919189453
903,3,0.104492188,0.097412109,0.908447266
904,4,0.097167969,0.096923828,0.926269531
905,5,0.118164063,0.088378906,0.886230469
906,6,0.121337891,0.075439453,0.909423828
907,7,0.12890625,0.0625,0.877685547
908,8,0.121337891,0.069091797,0.872558594
909,9,0.11328125,0.064697266,0.903076172
910,10,0.092529297,0.105224609,0.888183594
911,11,0.108154297,0.097412109,0.931884766
912,12,0.098632813,0.110351563,0.935791016
913,13,0.110839844,0.103271484,0.923583984
914,14,0.105712891,0.101074219,0.921630859
915,15,0.15234375,0.027587891,0.947021484
916,16,0.127685547,0.018554688,0.967285156
917,17,0.115966797,-0.030273438,0.924316406
918,18,0.121826172,-0.033203125,0.942626953
919,19,0.120849609,-0.051269531,0.947265625
920,20,0.128173828,-0.062744141,0.928466797
921,21,0.145263672,-0.078369141,0.919189453
922,22,0.149169922,-0.138183594,0.893310547
923,23,0.115722656,-0.099609375,0.938964844
924,24,0.118896484,-0.143798828,0.988769531
925,25,0.073974609,-0.026855469,0.932861328
926,26,0.104003906,-0.042236328,0.933105469
927,27,0.119384766,-0.027099609,0.885498047
928,28,0.089599609,-0.025634766,0.899902344
929,29,0.099365234,-0.032958984,0.979980469
930,30,0.089599609,-0.037841797,0.957519531
931,31,0.1015625,-0.050048828,0.916259766
932,32,0.145263672,-0.087158203,0.865234375
933,33,0.141357422,-0.056884766,0.908447266
934,34,0.133056641,-0.050292969,0.923828125
935,35,0.21875,-0.097167969,0.806884766
936,36,0.191650391,-0.104492188,0.966064453
937,37,0.136230469,-0.064697266,1.062255859
938,38,0.104492188,-0.073486328,0.983642578
939,39,0.088378906,-0.069824219,0.925537109
940,40,0.125488281,-0.15234375,0.891113281
941,41,0.004394531,0.019042969,1.020507813
942,42,0.096679688,0.089111328,0.888183594
943,43,0.127197266,0.118652344,0.854736328
944,44,0.077392578,0.106689453,0.882568359
945,45,0.073974609,0.069824219,0.905761719
946,46,0.090576172,0.122070313,0.893798828
947,47,0.084228516,0.161865234,0.950439453
948,48,-0.012207031,0.08203125,0.944091797
949,49,0.084716797,0.018066406,0.944580078
950,50,0.158935547,-0.185791016,0.865478516
951,51,0.174804688,-0.115966797,0.942138672
952,52,0.158447266,-0.08984375,0.929931641
953,53,0.062988281,-0.03125,1.047119141
954,54,0.060546875,-0.065673828,1.020263672
955,55,0.01953125,-0.08203125,0.971191406
956,56,0.005615234,-0.11328125,0.924560547
957,57,0.012939453,-0.124511719,0.942138672
958,58,0.103027344,-0.041748047,0.911865234
959,59,0.118652344,-0.123291016,0.912109375
960,60,0.312011719,-0.045166016,0.901611328
961,61,0.095458984,-0.048828125,0.981933594
962,62,0.034912109,-0.092529297,0.9765625
963,63,0.026855469,-0.038574219,1.052490234
964,64,0.059326172,-0.085449219,0.865722656
965,65,0.057617188,-0.084960938,0.955078125
966,66,0.196289063,-0.137207031,0.879394531
967,67,0.162353516,-0.148681641,0.905761719
968,68,-0.018798828,-0.110595703,0.993896484
969,69,0.150390625,0.059814453,0.784667969
970,70,0.178710938,0.091552734,0.775878906
971,71,0.181884766,0.117431641,0.812011719
972,72,0.064453125,0.162353516,0.816894531
973,73,0.162597656,0.111816406,0.830566406
974,74,0.066650391,0.094238281,0.871582031
975,75,0.042724609,0.034912109,0.9453125
976,76,0.033203125,-0.041503906,0.890625
977,77,0.131591797,-0.063232422,0.966796875
978,78,0.133056641,-0.056152344,0.916015625
979,79,0.176269531,-0.008056641,0.906005859
980,80,0.209472656,0.055419922,0.944824219
981,81,0.15625,-0.07421875,0.956787109
982,82,0.142333984,-0.058349609,0.874023438
983,83,0.101806641,0.001464844,0.939208984
984,84,0.055908203,0.008789063,0.941650391
985,85,0.067871094,0.002685547,0.9921875
986,86,0.104003906,-0.052490234,0.951904297
987,87,0.191162109,-0.007324219,0.860595703
988,88,0.086914063,0.034912109,0.971435547
989,89,0.156005859,-0.050048828,0.875732422
990,90,0.027099609,-0.080322266,0.900878906
991,91,0.188476563,-0.046630859,0.711669922
992,92,0.053222656,0.010986328,0.895019531
993,93,0.114746094,0.041015625,0.834960938
994,94,0.123291016,0.032226563,0.914550781
995,95,0.056152344,0.041503906,0.868652344
996,96,0.093261719,0.109130859,1.038574219
997,97,0.183837891,0.078613281,0.924072266
998,98,0.05859375,0.190673828,0.940917969
999,99,0.119873047,0.012451172,0.929931641
1000,100,0.139892578,0.063476563,0.872314453
1001,101,0.114990234,0.064697266,0.961914063
1002,102,0.173828125,0.072021484,0.868896484
1003,103,0.16796875,0.058349609,0.90234375
1004,104,0.105957031,0.079101563,1.015136719
1005,105,0.114013672,0.076416016,1.005126953
1006,106,0.035400391,0.009277344,0.936767578
1007,107,0.117431641,-0.042724609,0.990722656
1008,108,0.098876953,0.110107422,0.888427734
1009,109,0.069335938,0.099365234,0.965332031
1010,110,0.071777344,0.061523438,0.870361328
1011,111,0.076171875,0.060791016,0.950195313
1012,112,0.066894531,0.051757813,0.895263672
1013,113,0.093505859,0.058105469,0.955566406
1014,114,0.192138672,0.05078125,0.791259766
1015,115,0.136474609,0.068359375,0.97265625
1016,116,0.186523438,0.065917969,0.913818359
1017,117,-0.018554688,0.085449219,0.969970703
1018,118,0.078857422,0.028320313,0.927490234
1019,119,0.118408203,-0.011474609,0.896240234
1020,120,0.163330078,-0.017822266,0.922119141
1021,121,0.235595703,0.023681641,0.834960938
1022,122,0.161376953,0.088623047,0.907714844
1023,123,0.142333984,0.082519531,0.829101563
1024,124,0.150390625,0.0859375,0.858398438
1025,125,0.059082031,0.129882813,1.006347656
1026,126,0.134277344,0.0,0.781738281
1027,127,0.06640625,0.105712891,0.965332031
1028,128,0.131835938,0.115966797,0.909667969
1029,129,0.105712891,0.080810547,0.947998047
1030,130,0.073486328,0.098144531,1.097412109
1031,131,0.107421875,0.041992188,0.960205078
1032,132,0.068115234,0.032714844,0.830078125
1033,133,0.093505859,0.010253906,0.889648438
1034,134,0.076660156,0.01953125,0.906982422
1035,135,0.048828125,0.155029297,0.864501953
1036,136,0.160888672,0.142822266,0.822265625
1037,137,0.159912109,0.179931641,0.765625
1038,138,0.071777344,0.095703125,0.900146484
1039,139,0.147949219,0.184082031,0.932128906
1040,140,0.038330078,0.178466797,0.873779297
1041,141,0.155761719,0.106445313,0.882080078
1042,142,0.085205078,0.130615234,0.959228516
1043,143,0.098144531,0.063476563,0.911132813
1044,144,0.109130859,0.062744141,1.036132813
1045,145,0.126220703,0.107177734,1.041015625
1046,146,0.052490234,0.09765625,0.874023438
1047,147,0.164306641,-0.059326172,0.924072266
1048,148,0.143066406,0.145507813,0.959228516
1049,149,0.032470703,0.186767578,0.84375
1050,150,0.107421875,0.093017578,0.98828125
1051,151,0.142089844,0.102539063,0.948730469
1052,152,0.112304688,0.083007813,0.913085938
1053,153,0.105957031,0.070068359,0.867919922
1054,154,0.100341797,0.110595703,0.822021484
1055,155,0.036376953,0.057861328,0.900634766
1056,156,0.106445313,0.059326172,0.846923828
1057,157,0.105957031,0.076660156,0.918212891
1058,158,0.129394531,0.012207031,0.801025391
1059,159,0.134033203,0.092529297,0.843017578
1060,160,0.068115234,0.071044922,0.794189453
1061,161,0.191894531,0.170898438,0.833007813
1062,162,0.043212891,0.157226563,0.955810547
1063,163,0.193115234,0.171875,0.967529297
1064,164,0.154541016,0.135742188,0.983398438
1065,165,0.133300781,0.082275391,0.988769531
1066,166,0.131835938,0.083007813,0.840087891
1067,167,0.208007813,0.206787109,0.923095703
1068,168,0.256103516,0.036865234,0.963378906
1069,169,0.193115234,0.111083984,0.886230469
1070,170,0.270996094,0.048583984,0.928955078
1071,171,0.184570313,0.154541016,0.858886719
1072,172,0.080078125,0.131347656,0.755371094
1073,173,0.061523438,0.099365234,1.021972656
1074,174,0.209472656,0.018554688,0.989257813
1075,175,0.159423828,0.072753906,0.894775391
1076,176,0.113037109,0.111083984,0.864990234
1077,177,0.086181641,0.150146484,1.107177734
1078,178,0.030517578,0.074462891,0.935302734
1079,179,0.076171875,0.118164063,0.962158203
1080,180,0.029296875,0.104736328,0.893554688
1081,181,0.081298828,0.101318359,0.868164063
1082,182,0.043701172,0.106933594,0.913574219
1083,183,0.104248047,0.077636719,0.920898438
1084,184,0.127441406,0.024169922,0.903320313
1085,185,0.090820313,0.116943359,0.851074219
1086,186,0.063720703,0.108398438,0.909667969
1087,187,0.090820313,0.079589844,0.9296875
1088,188,0.062011719,0.095214844,0.846435547
1089,189,0.098144531,0.114990234,0.775390625
1090,190,0.05859375,0.087158203,0.907226563
1091,191,0.089599609,0.071044922,0.867675781
1092,192,0.052490234,0.036865234,0.914550781
1093,193,0.12890625,0.096923828,0.883300781
1094,194,0.100097656,0.106933594,0.991699219
1095,0,0.107910156,0.086181641,0.884033203
1096,1,0.097167969,0.101806641,0.912597656
1097,2,0.112304688,0.09765625,0.919189453
1098,3,0.104492188,0.097412109,0.908447266
1099,4,0.097167969,0.096923828,0.926269531
1100,5,0.118164063,0.088378906,0.886230469
1101,6,0.121337891,0.075439453,0.909423828
1102,7,0.12890625,0.0625,0.877685547
1103,8,0.121337891,0.069091797,0.872558594
1104,9,0.11328125,0.064697266,0.903076172
1105,10,0.092529297,0.105224609,0.888183594
1106,11,0.108154297,0.097412109,0.931884766
1107,12,0.098632813,0.110351563,0.935791016
1108,13,0.110839844,0.103271484,0.923583984
1109,14,0.105712891,0.101074219,0.921630859
1110,15,0.15234375,0.027587891,0.947021484
1111,16,0.127685547,0.018554688,0.967285156
1112,17,0.115966797,-0.030273438,0.924316406
1113,18,0.121826172,-0.033203125,0.942626953
1114,19,0.120849609,-0.051269531,0.947265625
1115,20,0.128173828,-0.062744141,0.928466797
1116,21,0.145263672,-0.078369141,0.919189453
1117,22,0.149169922,-0.138183594,0.893310547
1118,23,0.115722656,-0.099609375,0.938964844
1119,24,0.118896484,-0.143798828,0.988769531
1120,25,0.073974609,-0.026855469,0.932861328
1121,26,0.104003906,-0.042236328,0.933105469
1122,27,0.119384766,-0.027099609,0.885498047
1123,28,0.089599609,-0.025634766,0.899902344
1124,29,0.099365234,-0.032958984,0.979980469
1125,30,0.089599609,-0.037841797,0.957519531
1126,31,0.1015625,-0.050048828,0.916259766
1127,32,0.145263672,-0.087158203,0.865234375
1128,33,0.141357422,-0.056884766,0.908447266
1129,34,0.133056641,-0.050292969,0.923828125
1130,35,0.21875,-0.097167969,0.806884766
1131,36,0.191650391,-0.104492188,0.966064453
1132,37,0.136230469,-0.064697266,1.062255859
1133,38,0.104492188,-0.073486328,0.983642578
1134,39,0.088378906,-0.069824219,0.925537109
1135,40,0.125488281,-0.15234375,0.891113281
1136,41,0.004394531,0.019042969,1.020507813
1137,42,0.096679688,0.089111328,0.888183594
1138,43,0.127197266,0.118652344,0.854736328
1139,44,0.077392578,0.106689453,0.882568359
1140,45,0.073974609,0.069824219,0.905761719
1141,46,0.090576172,0.122070313,0.893798828
1142,47,0.084228516,0.161865234,0.950439453
1143,48,-0.012207031,0.08203125,0.944091797
1144,49,0.084716797,0.018066406,0.944580078
1145,50,0.158935547,-0.185791016,0.865478516
1146,51,0.174804688,-0.115966797,0.942138672
1147,52,0.158447266,-0.08984375,0.929931641
1148,53,0.062988281,-0.03125,1.047119141
1149,54,0.060546875,-0.065673828,1.020263672
1150,55,0.01953125,-0.08203125,0.971191406
1151,56,0.005615234,-0.11328125,0.924560547
1152,57,0.012939453,-0.124511719,0.942138672
1153,58,0.103027344,-0.041748047,0.911865234
1154,59,0.118652344,-0.123291016,0.912109375
1155,60,0.312011719,-0.045166016,0.901611328
1156,61,0.095458984,-0.048828125,0.981933594
1157,62,0.034912109,-0.092529297,0.9765625
1158,63,0.026855469,-0.038574219,1.052490234
1159,64,0.059326172,-0.085449219,0.865722656
1160,65,0.057617188,-0.084960938,0.955078125
1161,66,0.196289063,-0.137207031,0.879394531
1162,67,0.162353516,-0.148681641,0.905761719
1163,68,-0.018798828,-0.110595703,0.993896484
1164,69,0.150390625,0.059814453,0.784667969
1165,70,0.178710938,0.091552734,0.775878906
1166,71,0.181884766,0.117431641,0.812011719
1167,72,0.064453125,0.162353516,0.816894531
1168,73,0.162597656,0.111816406,0.830566406
1169,74,0.066650391,0.094238281,0.871582031
1170,75,0.042724609,0.034912109,0.9453125
1171,76,0.033203125,-0.041503906,0.890625
1172,77,0.131591797,-0.063232422,0.966796875
1173,78,0.133056641,-0.056152344,0.916015625
1174,79,0.176269531,-0.008056641,0.906005859
1175,80,0.209472656,0.055419922,0.944824219
1176,81,0.15625,-0.07421875,0.956787109
1177,82,0.142333984,-0.058349609,0.874023438
1178,83,0.101806641,0.001464844,0.939208984
1179,84,0.055908203,0.008789063,0.941650391
1180,85,0.067871094,0.002685547,0.9921875
1181,86,0.104003906,-0.052490234,0.951904297
1182,87,0.191162109,-0.007324219,0.860595703
1183,88,0.086914063,0.034912109,0.971435547
1184,89,0.156005859,-0.050048828,0.875732422
1185,90,0.027099609,-0.080322266,0.900878906
1186,91,0.188476563,-0.046630859,0.711669922
1187,92,0.053222656,0.010986328,0.895019531
1188,93,0.114746094,0.041015625,0.834960938
1189,94,0.123291016,0.032226563,0.914550781
1190,95,0.056152344,0.041503906,0.868652344
1191,96,0.093261719,0.109130859,1.038574219
1192,97,0.183837891,0.078613281,0.924072266
1193,98,0.05859375,0.190673828,0.940917969
1194,99,0.119873047,0.012451172,0.929931641
1195,100,0.139892578,0.063476563,0.872314453
1196,101,0.114990234,0.064697266,0.961914063
1197,102,0.173828125,0.072021484,0.868896484
1198,103,0.16796875,0.058349609,0.90234375
1199,104,0.105957031,0.079101563,1.015136719
1200,0,0.11328125,0.090332031,0.885253906
1201,1,0.122314453,0.080810547,0.905761719
1202,2,0.096679688,0.09765625,0.934082031
1203,3,0.100830078,0.104736328,0.941162109
1204,4,0.097900391,0.090576172,0.939208984
1205,5,0.106201172,0.094238281,0.931152344
1206,6,0.108886719,0.079833984,0.901123047
1207,7,0.115966797,0.089111328,0.890869141
1208,8,0.098632813,0.096679688,0.914794922
1209,9,0.101318359,0.083251953,0.897949219
1210,10,0.099365234,0.083984375,0.872314453
1211,11,0.110351563,0.077148438,0.891113281
1212,12,0.116210938,0.072265625,0.879882813
1213,13,0.116455078,0.071533203,0.936279297
1214,14,0.110107422,0.095214844,0.931152344
1215,15,0.100341797,0.094482422,0.950927734
1216,16,0.088867188,0.093994141,0.931396484
1217,17,0.115478516,0.093017578,0.897460938
1218,18,0.104736328,0.102294922,0.948486328
1219,19,0.112304688,0.096679688,0.926025391
1220,20,0.095458984,0.1015625,0.937011719
1221,21,0.111083984,0.09765625,0.906005859
1222,22,0.105224609,0.103515625,0.930419922
1223,23,0.099365234,0.085449219,0.886962891
1224,24,0.104736328,0.099853516,0.874267578
1225,25,0.104248047,0.091796875,0.936767578
1226,26,0.113037109,0.080810547,0.884277344
1227,27,0.107910156,0.090332031,0.950683594
1228,28,0.097900391,0.104736328,0.932861328
1229,29,0.108154297,0.094238281,0.924072266
1230,30,0.107421875,0.080566406,0.940185547
1231,31,0.115966797,0.078857422,0.905517578
1232,32,0.105712891,0.104003906,0.899414063
1233,33,0.126708984,0.087402344,0.90234375
1234,34,0.107421875,0.107177734,0.881347656
1235,35,0.106445313,0.083740234,0.935791016
1236,36,0.119628906,0.087402344,0.882324219
1237,37,0.113769531,0.07421875,0.87890625
1238,38,0.114990234,0.065917969,0.891113281
1239,39,0.111816406,0.048583984,0.879394531
1240,40,0.102050781,0.082275391,0.901855469
1241,41,0.109130859,0.090332031,0.914550781
1242,42,0.096435547,0.080078125,0.934082031
1243,43,0.094238281,0.093505859,0.9296875
1244,44,0.121337891,0.067138672,0.932861328
1245,45,0.100585938,-0.022216797,0.916748047
1246,46,0.111572266,-0.03125,0.907958984
1247,47,0.115966797,-0.035644531,0.894775391
1248,48,0.133300781,-0.048095703,0.913574219
1249,49,0.120117188,-0.068847656,0.879882813
1250,50,0.124511719,-0.033447266,0.952636719
1251,51,0.126953125,-0.026611328,0.919677734
1252,52,0.109130859,-0.017822266,0.943847656
1253,53,0.112060547,-0.008300781,0.915527344
1254,54,0.132568359,0.015136719,0.892822266
1255,55,0.105712891,0.023193359,0.953369141
1256,56,0.103759766,0.0078125,0.95703125
1257,57,0.083740234,0.037841797,0.960449219
1258,58,0.087158203,0.041503906,0.971191406
1259,59,0.085693359,0.012695313,0.869873047
1260,60,0.106445313,0.023193359,0.904541016
1261,61,0.075683594,0.031738281,0.981445313
1262,62,0.087890625,0.017089844,0.916015625
1263,63,0.112060547,0.03125,0.939208984
1264,64,0.098876953,0.073730469,0.937011719
1265,65,0.093261719,0.065185547,0.918945313
1266,66,0.078369141,0.015380859,0.91015625
1267,67,0.089599609,-0.008544922,0.942138672
1268,68,0.118652344,0.013671875,0.933837891
1269,69,0.091308594,0.010498047,0.933349609
1270,70,0.087402344,0.02734375,0.919189453
1271,71,0.108154297,0.00390625,0.922363281
1272,72,0.081542969,0.154052734,0.874267578
1273,73,0.037597656,0.109619141,0.903564453
1274,74,0.145019531,0.116943359,0.920410156
1275,75,0.157714844,0.079345703,0.895996094
1276,76,0.147705078,0.138427734,0.922851563
1277,77,0.152099609,0.089111328,0.9453125
1278,78,0.152099609,0.099365234,0.898193359
1279,79,0.118896484,0.054443359,0.931884766
1280,80,0.108154297,0.072021484,0.862792969
1281,81,0.103515625,0.005859375,0.859619141
1282,82,0.069091797,-0.014404297,0.968017578
1283,83,0.079589844,-0.001953125,0.942871094
1284,84,0.110595703,0.000732422,0.898193359
1285,85,0.096191406,0.017578125,0.922607422
1286,86,0.113037109,-0.007324219,0.939941406
1287,87,0.125,-0.006103516,0.909423828
1288,88,0.098388672,0.001953125,0.914550781
1289,89,0.142578125,0.041992188,0.96875
1290,90,0.10546875,-0.020263672,0.964599609
1291,91,0.152587891,-0.013183594,0.910644531
1292,92,0.129394531,0.041992188,0.907226563
1293,93,0.093261719,0.062255859,0.902587891
1294,94,0.138427734,0.036132813,0.961181641
1295,95,0.177490234,0.015869141,0.922607422
1296,96,0.090576172,0.043945313,0.933349609
1297,97,0.086181641,0.066894531,0.90625
1298,98,0.033203125,0.058837891,0.904541016
1299,99,0.163818359,0.086669922,0.928466797
1300,100,0.088134766,0.110351563,0.920166016
1301,101,0.082763672,0.076416016,0.8984375
1302,102,0.0703125,0.070556641,0.870361328
1303,103,0.087890625,0.099853516,0.910888672
1304,104,0.077880859,0.147949219,0.916748047
1305,105,0.122802734,0.119384766,0.862060547
1306,106,0.137207031,0.114746094,0.842041016
1307,107,0.177246094,0.081298828,0.870849609
1308,108,0.166259766,0.139404297,0.918701172
1309,109,0.201171875,0.066894531,0.919433594
1310,110,0.198486328,0.0546875,0.917724609
1311,111,0.229736328,0.112304688,0.948486328
1312,112,0.168701172,0.10546875,0.880859375
1313,113,0.233398438,0.166015625,0.880371094
1314,114,0.199707031,0.119384766,0.947265625
1315,115,0.137939453,0.114013672,0.927490234
1316,116,0.085693359,0.117919922,0.958984375
1317,117,0.167724609,0.112060547,0.876220703
1318,118,0.154541016,0.082275391,0.874755859
1319,119,0.073242188,0.102783203,0.947265625
1320,120,0.116699219,0.112304688,0.87890625
1321,121,0.069580078,0.084472656,0.884765625
1322,122,0.08203125,0.115966797,0.928955078
1323,123,0.066650391,0.098876953,0.934082031
1324,124,0.115722656,0.126708984,0.985351563
1325,125,0.144287109,0.107177734,0.927246094
1326,126,0.128173828,0.123779297,0.936035156
1327,127,0.104492188,0.109863281,0.965820313
1328,128,0.131103516,0.097900391,0.973876953
1329,129,0.134033203,0.084716797,0.897705078
1330,130,0.150390625,0.084960938,0.894287109
1331,131,0.135986328,0.070800781,0.890136719
1332,132,0.124267578,0.084472656,0.944335938
1333,133,0.134277344,0.085449219,0.91796875
1334,134,0.107177734,0.102050781,0.909667969
1335,135,0.041015625,0.130615234,0.912353516
1336,136,0.051513672,0.080322266,0.954345703
1337,137,0.109619141,0.066162109,0.923095703
1338,138,0.092773438,0.035400391,0.938964844
1339,139,0.194335938,0.022216797,0.9140625
1340,140,0.154052734,0.027587891,0.903320313
1341,141,0.130371094,0.062011719,0.868164063
1342,142,0.082763672,0.03125,0.961914063
1343,143,0.080810547,0.030273438,0.901855469
1344,144,0.078369141,-0.013671875,0.892089844
1345,145,0.091552734,0.008300781,0.900878906
1346,146,0.141357422,0.120117188,0.982910156
1347,147,0.123291016,0.107421875,0.930664063
1348,148,0.100341797,0.065429688,0.921630859
1349,149,0.126708984,0.017822266,0.977783203
1350,150,0.105224609,0.049804688,0.890869141
1351,151,0.076171875,0.027587891,0.904296875
1352,152,0.090332031,0.031738281,0.996582031
1353,153,0.05078125,0.029541016,1.02734375
1354,154,0.090576172,0.051757813,0.977783203
1355,155,0.144775391,0.023193359,0.959472656
1356,156,0.108642578,0.013427734,0.901367188
1357,157,0.140380859,0.052734375,0.923095703
1358,158,0.099365234,0.034179688,0.927734375
1359,159,0.166992188,0.077636719,0.890380859
1360,160,0.130371094,0.061767578,0.965576172
1361,161,0.110595703,0.021972656,0.888671875
1362,162,0.108886719,0.058837891,0.907958984
1363,163,0.078369141,0.093017578,0.926269531
1364,164,0.098388672,0.067138672,0.873046875
1365,165,0.114501953,0.088867188,0.857666016
1366,166,0.145751953,0.125732422,0.915039063
1367,167,0.116943359,0.058105469,0.870361328
1368,168,0.088134766,0.079589844,0.881347656
1369,169,0.181640625,0.073486328,0.886474609
1370,170,0.071044922,0.133300781,0.99609375
1371,171,0.086181641,0.136474609,0.990478516
1372,172,0.068847656,0.14453125,0.951171875
1373,173,0.068359375,0.154296875,1.012207031
1374,174,0.102294922,0.08984375,0.911621094
1375,175,0.158691406,0.031494141,0.876464844
1376,176,0.125976563,0.079589844,0.992431641
1377,177,0.271484375,0.045898438,0.888183594
1378,178,0.215820313,0.137207031,0.893554688
1379,179,0.150878906,0.034423828,0.932617188
1380,180,0.119140625,0.013916016,0.875244141
1381,181,0.076660156,0.038330078,0.960205078
1382,182,0.019042969,0.067382813,0.967285156
1383,183,0.106445313,0.035400391,0.919433594
1384,184,0.144775391,0.056152344,0.890380859
1385,185,0.137695313,0.026367188,0.87109375
1386,186,0.153564453,0.030029297,0.859375
1387,187,0.111816406,0.030517578,0.99609375
1388,188,0.129394531,0.044433594,0.894775391
1389,189,0.104980469,0.08984375,0.938964844
1390,190,0.120849609,0.099365234,0.921630859
1391,191,0.159423828,0.033447266,0.883789063
1392,192,0.041015625,0.043701172,0.922119141
1393,193,0.079589844,-0.0078125,0.908691406
1394,194,0.198486328,0.058837891,0.929199219
1395,195,0.147705078,-0.000732422,0.854736328
1396,196,0.165527344,0.047851563,0.872070313
1397,197,0.115478516,0.060791016,0.965820313
1398,198,0.197021484,0.049072266,0.903320313
1399,199,0.148925781,0.049072266,0.975341797
1400,200,0.150390625,0.128173828,0.93359375
1401,201,0.162597656,0.085693359,0.862304688
1402,202,0.137695313,0.129394531,0.909667969
1403,203,0.117431641,0.135986328,0.859130859
1404,204,0.109863281,0.118408203,0.820068359
1405,205,0.120849609,0.0859375,0.91796875
1406,206,0.1328125,0.103027344,0.919433594
1407,207,0.129394531,0.148925781,0.947265625
1408,208,0.045166016,0.155273438,0.946044922
1409,209,0.028320313,0.109619141,0.956787109
1410,210,0.15234375,0.116699219,0.925537109
1411,211,0.159179688,0.099365234,0.867675781
1412,212,0.059814453,0.146728516,0.924072266
1413,213,0.157226563,0.165283203,0.982177734
1414,214,0.140380859,0.181396484,0.952392578
1415,215,0.100341797,0.148925781,0.93359375
1416,216,0.262207031,0.050048828,0.954345703
1417,217,0.105957031,0.148681641,0.967285156
1418,218,0.147216797,0.171386719,0.940185547
1419,219,0.045654297,0.20703125,0.903808594
1420,220,0.095458984,0.149414063,0.779541016
1421,221,0.102783203,0.167724609,0.862304688
1422,222,0.15234375,0.142089844,0.872558594
1423,223,0.143066406,0.149169922,0.894287109
1424,224,0.106933594,0.171630859,0.976806641
1425,225,0.103027344,0.119384766,0.983398438
1426,226,0.102783203,0.044677734,0.958740234
1427,227,0.101806641,0.093505859,0.948730469
1428,228,0.104248047,0.086181641,0.890625
1429,229,0.100830078,0.111816406,0.955810547
1430,230,0.046875,0.087158203,0.907470703
1431,231,0.015625,0.128662109,0.963134766
1432,232,0.060791016,0.138671875,0.901123047
1433,233,0.141113281,0.139892578,0.975585938
1434,234,0.103271484,0.201904297,0.981201172
1435,235,0.064453125,0.116943359,0.941650391
1436,236,0.144042969,0.090820313,0.920166016
1437,237,0.130126953,0.030761719,0.882080078
1438,238,0.070556641,0.143554688,0.953369141
1439,239,0.103027344,0.129394531,0.922119141
1440,240,0.128662109,0.077148438,0.896484375
1441,241,0.134033203,0.043701172,0.882324219
1442,242,0.159667969,0.048095703,0.823974609
1443,243,0.041259766,0.032226563,0.877685547
1444,244,0.138427734,0.017333984,0.858154297
1445,245,0.177246094,0.117431641,0.864257813
1446,246,0.106689453,0.126220703,0.952636719
1447,247,0.161376953,0.133056641,1.007324219
1448,248,0.133300781,0.080566406,0.932373047
1449,249,0.150146484,0.120849609,0.928710938
1450,250,0.024658203,0.157470703,0.974121094
1451,251,0.009277344,0.144042969,1.03125
1452,252,0.029052734,0.062988281,0.958984375
1453,253,0.065673828,0.103759766,0.941162109
1454,254,0.098876953,0.103759766,0.855224609
1455,255,0.108154297,0.093505859,0.904052734
1456,256,0.128417969,0.080566406,0.916748047
1457,257,0.03515625,0.103271484,0.936767578
1458,258,-0.020263672,0.130859375,0.935791016
1459,259,0.013427734,0.094726563,0.866210938
1460,260,0.062988281,0.093017578,0.895751953
1461,261,0.105957031,0.065673828,0.909179688
1462,262,0.114746094,0.083984375,0.965087891
1463,263,0.072021484,0.095214844,0.993652344
1464,264,0.075439453,0.167724609,0.972412109
1465,265,0.059570313,0.099365234,0.938476563
1466,266,0.1328125,0.073242188,0.883300781
1467,267,0.056396484,0.095214844,0.956298828
1468,268,0.094238281,0.084716797,0.926513672
1469,269,0.160644531,0.081542969,0.806152344
1470,270,0.12109375,0.120605469,0.927490234
1471,271,0.067382813,0.109863281,0.922851563
1472,272,0.090820313,0.123046875,0.948486328
1473,273,0.090332031,0.113769531,0.895996094
1474,274,0.145507813,0.100830078,0.879638672
1475,275,0.152832031,0.053710938,0.903808594
1476,276,0.143310547,0.039306641,0.863769531
1477,277,0.201660156,0.009521484,0.874755859
1478,278,0.058105469,0.024169922,0.8984375
1479,279,0.148681641,0.046875,0.919433594
1480,280,0.076904297,0.040527344,0.8984375
1481,281,0.098144531,0.047607422,0.832275391
1482,282,0.142822266,0.035888672,0.885742188
1483,283,0.157714844,0.058837891,0.896240234
1484,284,0.077880859,0.072021484,0.865966797
1485,285,0.080810547,0.103759766,0.974121094
1486,286,0.087402344,0.058837891,0.911621094
1487,287,-0.069824219,0.135253906,0.947509766
1488,288,-0.051513672,0.215332031,0.95703125
1489,289,0.009521484,0.054199219,0.910400391
1490,290,0.068115234,0.092285156,0.931884766
1491,291,0.151611328,0.094238281,0.969238281
1492,292,0.165283203,0.063476563,0.961669922
1493,293,0.188964844,0.01953125,0.912597656
1494,294,0.185791016,0.001708984,0.817138672
1495,295,0.2109375,0.022949219,0.849121094
1496,296,0.184814453,0.058837891,0.934814453
1497,297,0.201904297,0.059570313,0.802490234
1498,298,0.15234375,0.026367188,0.867675781
1499,299,0.168457031,0.020019531,0.836914063
1500,0,0.119384766,0.083251953,0.888183594
1501,1,0.096923828,0.09765625,0.891601563
1502,2,0.104736328,0.106445313,0.948974609
1503,3,0.111816406,0.086669922,0.937988281
1504,4,0.098876953,0.097167969,0.902587891
1505,5,0.094970703,0.086181641,0.889160156
1506,6,0.119873047,0.0703125,0.8984375
1507,7,0.140380859,0.063964844,0.885253906
1508,8,0.124267578,0.100830078,0.902587891
1509,9,0.107910156,0.103027344,0.894287109
1510,10,0.117431641,0.096191406,0.931884766
1511,11,0.099853516,0.091552734,0.927978516
1512,12,0.104003906,0.107910156,0.910644531
1513,13,0.104248047,0.091552734,0.910888672
1514,14,0.115478516,0.086914063,0.890869141
1515,15,0.11328125,0.082275391,0.891113281
1516,16,0.11328125,0.088378906,0.883789063
1517,17,0.115478516,0.094970703,0.919921875
1518,18,0.1015625,0.098388672,0.937988281
1519,19,0.111083984,0.099609375,0.934082031
1520,20,0.120361328,0.080322266,0.905029297
1521,21,0.112792969,0.090087891,0.938964844
1522,22,0.098144531,0.099121094,0.922607422
1523,23,0.123046875,0.102539063,0.900634766
1524,24,0.115966797,0.092041016,0.883789063
1525,25,0.106445313,0.100097656,0.936279297
1526,26,0.123535156,0.092285156,0.905029297
1527,27,0.109375,0.080322266,0.913085938
1528,28,0.123535156,0.079833984,0.887939453
1529,29,0.111816406,0.083496094,0.897216797
1530,0,0.119384766,0.083251953,0.888183594
1531,1,0.096923828,0.09765625,0.891601563
1532,2,0.104736328,0.106445313,0.948974609
1533,3,0.111816406,0.086669922,0.937988281
1534,4,0.098876953,0.097167969,0.902587891
1535,5,0.094970703,0.086181641,0.889160156
1536,6,0.119873047,0.0703125,0.8984375
1537,7,0.140380859,0.063964844,0.885253906
1538,8,0.124267578,0.100830078,0.902587891
1539,9,0.107910156,0.103027344,0.894287109
1540,10,0.117431641,0.096191406,0.931884766
1541,11,0.099853516,0.091552734,0.927978516
1542,12,0.104003906,0.107910156,0.910644531
1543,13,0.104248047,0.091552734,0.910888672
1544,14,0.115478516,0.086914063,0.890869141
1545,15,0.11328125,0.082275391,0.891113281
1546,16,0.11328125,0.088378906,0.883789063
1547,17,0.115478516,0.094970703,0.919921875
1548,18,0.1015625,0.098388672,0.937988281
1549,19,0.111083984,0.099609375,0.934082031
1550,20,0.120361328,0.080322266,0.905029297
1551,21,0.112792969,0.090087891,0.938964844
1552,22,0.098144531,0.099121094,0.922607422
1553,23,0.123046875,0.102539063,0.900634766
1554,24,0.115966797,0.092041016,0.883789063
1555,25,0.106445313,0.100097656,0.936279297
1556,26,0.123535156,0.092285156,0.905029297
1557,27,0.109375,0.080322266,0.913085938
1558,28,0.123535156,0.079833984,0.887939453
1559,29,0.111816406,0.083496094,0.897216797
1560,0,0.119384766,0.083251953,0.888183594
1561,1,0.096923828,0.09765625,0.891601563
1562,2,0.104736328,0.106445313,0.948974609
1563,3,0.111816406,0.086669922,0.937988281
1564,4,0.098876953,0.097167969,0.902587891
1565,5,0.094970703,0.086181641,0.889160156
1566,6,0.119873047,0.0703125,0.8984375
1567,7,0.140380859,0.063964844,0.885253906
1568,8,0.124267578,0.100830078,0.902587891
1569,9,0.107910156,0.103027344,0.894287109
1570,10,0.117431641,0.096191406,0.931884766
1571,11,0.099853516,0.091552734,0.927978516
1572,12,0.104003906,0.107910156,0.910644531
1573,13,0.104248047,0.091552734,0.910888672
1574,14,0.115478516,0.086914063,0.890869141
1575,15,0.11328125,0.082275391,0.891113281
1576,16,0.11328125,0.088378906,0.883789063
1577,17,0.115478516,0.094970703,0.919921875
1578,18,0.1015625,0.098388672,0.937988281
1579,19,0.111083984,0.099609375,0.934082031
1580,20,0.120361328,0.080322266,0.905029297
1581,21,0.112792969,0.090087891,0.938964844
1582,22,0.098144531,0.099121094,0.922607422
1583,23,0.123046875,0.102539063,0.900634766
1584,24,0.115966797,0.092041016,0.883789063
1585,25,0.106445313,0.100097656,0.936279297
1586,26,0.123535156,0.092285156,0.905029297
1587,27,0.109375,0.080322266,0.913085938
1588,28,0.123535156,0.079833984,0.887939453
1589,29,0.111816406,0.083496094,0.897216797
1590,0,0.119384766,0.083251953,0.888183594
1591,1,0.096923828,0.09765625,0.891601563
1592,2,0.104736328,0.106445313,0.948974609
1593,3,0.111816406,0.086669922,0.937988281
1594,4,0.098876953,0.097167969,0.902587891
1595,5,0.094970703,0.086181641,0.889160156
1596,6,0.119873047,0.0703125,0.8984375
1597,7,0.140380859,0.063964844,0.885253906
1598,8,0.124267578,0.100830078,0.902587891
1599,9,0.107910156,0.103027344,0.894287109
1600,10,0.117431641,0.096191406,0.931884766
1601,11,0.099853516,0.091552734,0.927978516
1602,12,0.104003906,0.107910156,0.910644531
1603,13,0.104248047,0.091552734,0.910888672
1604,14,0.115478516,0.086914063,0.890869141
1605,15,0.11328125,0.082275391,0.891113281
1606,16,0.11328125,0.088378906,0.883789063
1607,17,0.115478516,0.094970703,0.919921875
1608,18,0.1015625,0.098388672,0.937988281
1609,19,0.111083984,0.099609375,0.934082031
1610,20,0.120361328,0.080322266,0.905029297
1611,21,0.112792969,0.090087891,0.938964844
1612,22,0.098144531,0.099121094,0.922607422
1613,23,0.123046875,0.102539063,0.900634766
1614,24,0.115966797,0.092041016,0.883789063
1615,25,0.106445313,0.100097656,0.936279297
1616,26,0.123535156,0.092285156,0.905029297
1617,27,0.109375,0.080322266,0.913085938
1618,28,0.123535156,0.079833984,0.887939453
1619,29,0.111816406,0.083496094,0.897216797
1620,0,0.119384766,0.083251953,0.888183594
1621,1,0.096923828,0.09765625,0.891601563
1622,2,0.104736328,0.106445313,0.948974609
1623,3,0.111816406,0.086669922,0.937988281
1624,4,0.098876953,0.097167969,0.902587891
1625,5,0.094970703,0.086181641,0.889160156
1626,6,0.119873047,0.0703125,0.8984375
1627,7,0.140380859,0.063964844,0.885253906
1628,8,0.124267578,0.100830078,0.902587891
1629,9,0.107910156,0.103027344,0.894287109
1630,10,0.117431641,0.096191406,0.931884766
1631,11,0.099853516,0.091552734,0.927978516
1632,12,0.104003906,0.107910156,0.910644531
1633,13,0.104248047,0.091552734,0.910888672
1634,14,0.115478516,0.086914063,0.890869141
1635,15,0.11328125,0.082275391,0.891113281
1636,16,0.11328125,0.088378906,0.883789063
1637,17,0.115478516,0.094970703,0.919921875
1638,18,0.1015625,0.098388672,0.937988281
1639,19,0.111083984,0.099609375,0.934082031
1640,20,0.120361328,0.080322266,0.905029297
1641,21,0.112792969,0.090087891,0.938964844
1642,22,0.098144531,0.099121094,0.922607422
1643,23,0.123046875,0.102539063,0.900634766
1644,24,0.115966797,0.092041016,0.883789063
1645,25,0.106445313,0.100097656,0.936279297
1646,26,0.123535156,0.092285156,0.905029297
1647,27,0.109375,0.080322266,0.913085938
1648,28,0.123535156,0.079833984,0.887939453
1649,29,0.111816406,0.083496094,0.897216797
1650,0,0.119384766,0.083251953,0.888183594
1651,1,0.096923828,0.09765625,0.891601563
1652,2,0.104736328,0.106445313,0.948974609
1653,3,0.111816406,0.086669922,0.937988281
1654,4,0.098876953,0.097167969,0.902587891
1655,5,0.094970703,0.086181641,0.889160156
1656,6,0.119873047,0.0703125,0.8984375
1657,7,0.140380859,0.063964844,0.885253906
1658,8,0.124267578,0.100830078,0.902587891
1659,9,0.107910156,0.103027344,0.894287109
1660,10,0.117431641,0.096191406,0.931884766
1661,11,0.099853516,0.091552734,0.927978516
1662,12,0.104003906,0.107910156,0.910644531
1663,13,0.104248047,0.091552734,0.910888672
1664,14,0.115478516,0.086914063,0.890869141
1665,15,0.11328125,0.082275391,0.891113281
1666,16,0.11328125,0.088378906,0.883789063
1667,17,0.115478516,0.094970703,0.919921875
1668,18,0.1015625,0.098388672,0.937988281
1669,19,0.111083984,0.099609375,0.934082031
1670,20,0.120361328,0.080322266,0.905029297
1671,21,0.112792969,0.090087891,0.938964844
1672,22,0.098144531,0.099121094,0.922607422
1673,23,0.123046875,0.102539063,0.900634766
1674,24,0.115966797,0.092041016,0.883789063
1675,25,0.106445313,0.100097656,0.936279297
1676,26,0.123535156,0.092285156,0.905029297
1677,27,0.109375,0.080322266,0.913085938
1678,28,0.123535156,0.079833984,0.887939453
1679,29,0.111816406,0.083496094,0.897216797
1680,0,0.119384766,0.083251953,0.888183594
1681,1,0.096923828,0.09765625,0.891601563
1682,2,0.104736328,0.106445313,0.948974609
1683,3,0.111816406,0.086669922,0.937988281
1684,4,0.098876953,0.097167969,0.902587891
1685,5,0.094970703,0.086181641,0.889160156
1686,6,0.119873047,0.0703125,0.8984375
1687,7,0.140380859,0.063964844,0.885253906
1688,8,0.124267578,0.100830078,0.902587891
1689,9,0.107910156,0.103027344,0.894287109
1690,10,0.117431641,0.096191406,0.931884766
1691,11,0.099853516,0.091552734,0.927978516
1692,12,0.104003906,0.107910156,0.910644531
1693,13,0.104248047,0.091552734,0.910888672
1694,14,0.115478516,0.086914063,0.890869141
1695,15,0.11328125,0.082275391,0.891113281
1696,16,0.11328125,0.088378906,0.883789063
1697,17,0.115478516,0.094970703,0.919921875
1698,18,0.1015625,0.098388672,0.937988281
1699,19,0.111083984,0.099609375,0.934082031
1700,20,0.120361328,0.080322266,0.905029297
1701,21,0.112792969,0.090087891,0.938964844
1702,22,0.098144531,0.099121094,0.922607422
1703,23,0.123046875,0.102539063,0.900634766
1704,24,0.115966797,0.092041016,0.883789063
1705,25,0.106445313,0.100097656,0.936279297
1706,26,0.123535156,0.092285156,0.905029297
1707,27,0.109375,0.080322266,0.913085938
1708,28,0.123535156,0.079833984,0.887939453
1709,29,0.111816406,0.083496094,0.897216797
1710,0,0.119384766,0.083251953,0.888183594
1711,1,0.096923828,0.09765625,0.891601563
1712,2,0.104736328,0.106445313,0.948974609
1713,3,0.111816406,0.086669922,0.937988281
1714,4,0.098876953,0.097167969,0.902587891
1715,5,0.094970703,0.086181641,0.889160156
1716,6,0.119873047,0.0703125,0.8984375
1717,7,0.140380859,0.063964844,0.885253906
1718,8,0.124267578,0.100830078,0.902587891
1719,9,0.107910156,0.103027344,0.894287109
1720,10,0.117431641,0.096191406,0.931884766
1721,11,0.099853516,0.091552734,0.927978516
1722,12,0.104003906,0.107910156,0.910644531
1723,13,0.104248047,0.091552734,0.910888672
1724,14,0.115478516,0.086914063,0.890869141
1725,15,0.11328125,0.082275391,0.891113281
1726,16,0.11328125,0.088378906,0.883789063
1727,17,0.115478516,0.094970703,0.919921875
1728,18,0.1015625,0.098388672,0.937988281
1729,19,0.111083984,0.099609375,0.934082031
1730,20,0.120361328,0.080322266,0.905029297
1731,21,0.112792969,0.090087891,0.938964844
1732,22,0.098144531,0.099121094,0.922607422
1733,23,0.123046875,0.102539063,0.900634766
1734,24,0.115966797,0.092041016,0.883789063
1735,25,0.106445313,0.100097656,0.936279297
1736,26,0.123535156,0.092285156,0.905029297
1737,27,0.109375,0.080322266,0.913085938
1738,28,0.123535156,0.079833984,0.887939453
1739,29,0.111816406,0.083496094,0.897216797
1740,0,0.119384766,0.083251953,0.888183594
1741,1,0.096923828,0.09765625,0.891601563
1742,2,0.104736328,0.106445313,0.948974609
1743,3,0.111816406,0.086669922,0.937988281
1744,4,0.098876953,0.097167969,0.902587891
1745,5,0.094970703,0.086181641,0.889160156
1746,6,0.119873047,0.0703125,0.8984375
1747,7,0.140380859,0.063964844,0.885253906
1748,8,0.124267578,0.100830078,0.902587891
1749,9,0.107910156,0.103027344,0.894287109
1750,10,0.117431641,0.096191406,0.931884766
1751,11,0.099853516,0.091552734,0.927978516
1752,12,0.104003906,0.107910156,0.910644531
1753,13,0.104248047,0.091552734,0.910888672
1754,14,0.115478516,0.086914063,0.890869141
1755,15,0.11328125,0.082275391,0.891113281
1756,16,0.11328125,0.088378906,0.883789063
1757,17,0.115478516,0.094970703,0.919921875
1758,18,0.1015625,0.098388672,0.937988281
1759,19,0.111083984,0.099609375,0.934082031
1760,20,0.120361328,0.080322266,0.905029297
1761,21,0.112792969,0.090087891,0.938964844
1762,22,0.098144531,0.099121094,0.922607422
1763,23,0.123046875,0.102539063,0.900634766
1764,24,0.115966797,0.092041016,0.883789063
1765,25,0.106445313,0.100097656,0.936279297
1766,26,0.123535156,0.092285156,0.905029297
1767,27,0.109375,0.080322266,0.913085938
1768,28,0.123535156,0.079833984,0.887939453
1769,29,0.111816406,0.083496094,0.897216797
1770,0,0.119384766,0.083251953,0.888183594
1771,1,0.096923828,0.09765625,0.891601563
1772,2,0.104736328,0.106445313,0.948974609
1773,3,0.111816406,0.086669922,0.937988281
1774,4,0.098876953,0.097167969,0.902587891
1775,5,0.094970703,0.086181641,0.889160156
1776,6,0.119873047,0.0703125,0.8984375
1777,7,0.140380859,0.063964844,0.885253906
1778,8,0.124267578,0.100830078,0.902587891
1779,9,0.107910156,0.103027344,0.894287109
1780,10,0.117431641,0.096191406,0.931884766
1781,11,0.099853516,0.091552734,0.927978516
1782,12,0.104003906,0.107910156,0.910644531
1783,13,0.104248047,0.091552734,0.910888672
1784,14,0.115478516,0.086914063,0.890869141
1785,15,0.11328125,0.082275391,0.891113281
1786,16,0.11328125,0.088378906,0.883789063
1787,17,0.115478516,0.094970703,0.919921875
1788,18,0.1015625,0.098388672,0.937988281
1789,19,0.111083984,0.099609375,0.934082031
1790,20,0.120361328,0.080322266,0.905029297
1791,21,0.112792969,0.090087891,0.938964844
1792,22,0.098144531,0.099121094,0.922607422
1793,23,0.123046875,0.102539063,0.900634766
1794,24,0.115966797,0.092041016,0.883789063
1795,25,0.106445313,0.100097656,0.936279297
1796,26,0.123535156,0.092285156,0.905029297
1797,27,0.109375,0.080322266,0.913085938
1798,28,0.123535156,0.079833984,0.887939453
1799,29,0.111816406,0.083496094,0.897216797
1800,0,0.107910156,0.086181641,0.884033203
1801,1,0.097167969,0.101806641,0.912597656
1802,2,0.112304688,0.09765625,0.919189453
1803,3,0.104492188,0.097412109,0.908447266
1804,4,0.097167969,0.096923828,0.926269531
1805,5,0.118164063,0.088378906,0.886230469
1806,6,0.121337891,0.075439453,0.909423828
1807,7,0.12890625,0.0625,0.877685547
1808,8,0.121337891,0.069091797,0.872558594
1809,9,0.11328125,0.064697266,0.903076172
1810,10,0.092529297,0.105224609,0.888183594
1811,11,0.108154297,0.097412109,0.931884766
1812,12,0.098632813,0.110351563,0.935791016
1813,13,0.110839844,0.103271484,0.923583984
1814,14,0.105712891,0.101074219,0.921630859
1815,15,0.15234375,0.027587891,0.947021484
1816,16,0.127685547,0.018554688,0.967285156
1817,17,0.115966797,-0.030273438,0.924316406
1818,18,0.121826172,-0.033203125,0.942626953
1819,19,0.120849609,-0.051269531,0.947265625
1820,20,0.128173828,-0.062744141,0.928466797
1821,21,0.145263672,-0.078369141,0.919189453
1822,22,0.149169922,-0.138183594,0.893310547
1823,23,0.115722656,-0.099609375,0.938964844
1824,24,0.118896484,-0.143798828,0.988769531
1825,25,0.073974609,-0.026855469,0.932861328
1826,26,0.104003906,-0.042236328,0.933105469
1827,27,0.119384766,-0.027099609,0.885498047
1828,28,0.089599609,-0.025634766,0.899902344
1829,29,0.099365234,-0.032958984,0.979980469
1830,30,0.089599609,-0.037841797,0.957519531
1831,31,0.1015625,-0.050048828,0.916259766
1832,32,0.145263672,-0.087158203,0.865234375
1833,33,0.141357422,-0.056884766,0.908447266
1834,34,0.133056641,-0.050292969,0.923828125
1835,35,0.21875,-0.097167969,0.806884766
1836,36,0.191650391,-0.104492188,0.966064453
1837,37,0.136230469,-0.064697266,1.062255859
1838,38,0.104492188,-0.073486328,0.983642578
1839,39,0.088378906,-0.069824219,0.925537109
1840,40,0.125488281,-0.15234375,0.891113281
1841,41,0.004394531,0.019042969,1.020507813
1842,42,0.096679688,0.089111328,0.888183594
1843,43,0.127197266,0.118652344,0.854736328
1844,44,0.077392578,0.106689453,0.882568359
1845,45,0.073974609,0.069824219,0.905761719
1846,46,0.090576172,0.122070313,0.893798828
1847,47,0.084228516,0.161865234,0.950439453
1848,48,-0.012207031,0.08203125,0.944091797
1849,49,0.084716797,0.018066406,0.944580078
1850,50,0.158935547,-0.185791016,0.865478516
1851,51,0.174804688,-0.115966797,0.942138672
1852,52,0.158447266,-0.08984375,0.929931641
1853,53,0.062988281,-0.03125,1.047119141
1854,54,0.060546875,-0.065673828,1.020263672
1855,55,0.01953125,-0.08203125,0.971191406
1856,56,0.005615234,-0.11328125,0.924560547
1857,57,0.012939453,-0.124511719,0.942138672
1858,58,0.103027344,-0.041748047,0.911865234
1859,59,0.118652344,-0.123291016,0.912109375
1860,60,0.312011719,-0.045166016,0.901611328
1861,61,0.095458984,-0.048828125,0.981933594
1862,62,0.034912109,-0.092529297,0.9765625
1863,63,0.026855469,-0.038574219,1.052490234
1864,64,0.059326172,-0.085449219,0.865722656
1865,65,0.057617188,-0.084960938,0.955078125
1866,66,0.196289063,-0.137207031,0.879394531
1867,67,0.162353516,-0.148681641,0.905761719
1868,68,-0.018798828,-0.110595703,0.993896484
1869,69,0.150390625,0.059814453,0.784667969
1870,70,0.178710938,0.091552734,0.775878906
1871,71,0.181884766,0.117431641,0.812011719
1872,72,0.064453125,0.162353516,0.816894531
1873,73,0.162597656,0.111816406,0.830566406
1874,74,0.066650391,0.094238281,0.871582031
1875,75,0.042724609,0.034912109,0.9453125
1876,76,0.033203125,-0.041503906,0.890625
1877,77,0.131591797,-0.063232422,0.966796875
1878,78,0.133056641,-0.056152344,0.916015625
1879,79,0.176269531,-0.008056641,0.906005859
1880,80,0.209472656,0.055419922,0.944824219
1881,81,0.15625,-0.07421875,0.956787109
1882,82,0.142333984,-0.058349609,0.874023438
1883,83,0.101806641,0.001464844,0.939208984
1884,84,0.055908203,0.008789063,0.941650391
1885,85,0.067871094,0.002685547,0.9921875
1886,86,0.104003906,-0.052490234,0.951904297
1887,87,0.191162109,-0.007324219,0.860595703
1888,88,0.086914063,0.034912109,0.971435547
1889,89,0.156005859,-0.050048828,0.875732422
1890,90,0.027099609,-0.080322266,0.900878906
1891,91,0.188476563,-0.046630859,0.711669922
1892,92,0.053222656,0.010986328,0.895019531
1893,93,0.114746094,0.041015625,0.834960938
1894,94,0.123291016,0.032226563,0.914550781
1895,95,0.056152344,0.041503906,0.868652344
1896,96,0.093261719,0.109130859,1.038574219
1897,97,0.183837891,0.078613281,0.924072266
1898,98,0.05859375,0.190673828,0.940917969
1899,99,0.119873047,0.012451172,0.929931641
1900,100,0.139892578,0.063476563,0.872314453
1901,101,0.114990234,0.064697266,0.961914063
1902,102,0.173828125,0.072021484,0.868896484
1903,103,0.16796875,0.058349609,0.90234375
1904,104,0.105957031,0.079101563,1.015136719
1905,105,0.114013672,0.076416016,1.005126953
1906,106,0.035400391,0.009277344,0.936767578
1907,107,0.117431641,-0.042724609,0.990722656
1908,108,0.098876953,0.110107422,0.888427734
1909,109,0.069335938,0.099365234,0.965332031
1910,110,0.071777344,0.061523438,0.870361328
1911,111,0.076171875,0.060791016,0.950195313
1912,112,0.066894531,0.051757813,0.895263672
1913,113,0.093505859,0.058105469,0.955566406
1914,114,0.192138672,0.05078125,0.791259766
1915,115,0.136474609,0.068359375,0.97265625
1916,116,0.186523438,0.065917969,0.913818359
1917,117,-0.018554688,0.085449219,0.969970703
1918,118,0.078857422,0.028320313,0.927490234
1919,119,0.118408203,-0.011474609,0.896240234
1920,120,0.163330078,-0.017822266,0.922119141
1921,121,0.235595703,0.023681641,0.834960938
1922,122,0.161376953,0.088623047,0.907714844
1923,123,0.142333984,0.082519531,0.829101563
1924,124,0.150390625,0.0859375,0.858398438
1925,125,0.059082031,0.129882813,1.006347656
1926,126,0.134277344,0.0,0.781738281
1927,127,0.06640625,0.105712891,0.965332031
1928,128,0.131835938,0.115966797,0.909667969
1929,129,0.105712891,0.080810547,0.947998047
1930,130,0.073486328,0.098144531,1.097412109
1931,131,0.107421875,0.041992188,0.960205078
1932,132,0.068115234,0.032714844,0.830078125
1933,133,0.093505859,0.010253906,0.889648438
1934,134,0.076660156,0.01953125,0.906982422
1935,135,0.048828125,0.155029297,0.864501953
1936,136,0.160888672,0.142822266,0.822265625
1937,137,0.159912109,0.179931641,0.765625
1938,138,0.071777344,0.095703125,0.900146484
1939,139,0.147949219,0.184082031,0.932128906
1940,140,0.038330078,0.178466797,0.873779297
1941,141,0.155761719,0.106445313,0.882080078
1942,142,0.085205078,0.130615234,0.959228516
1943,143,0.098144531,0.063476563,0.911132813
1944,144,0.109130859,0.062744141,1.036132813
1945,145,0.126220703,0.107177734,1.041015625
1946,146,0.052490234,0.09765625,0.874023438
1947,147,0.164306641,-0.059326172,0.924072266
1948,148,0.143066406,0.145507813,0.959228516
1949,149,0.032470703,0.186767578,0.84375
1950,150,0.107421875,0.093017578,0.98828125
1951,151,0.142089844,0.102539063,0.948730469
1952,152,0.112304688,0.083007813,0.913085938
1953,153,0.105957031,0.070068359,0.867919922
1954,154,0.100341797,0.110595703,0.822021484
1955,155,0.036376953,0.057861328,0.900634766
1956,156,0.106445313,0.059326172,0.846923828
1957,157,0.105957031,0.076660156,0.918212891
1958,158,0.129394531,0.012207031,0.801025391
1959,159,0.134033203,0.092529297,0.843017578
1960,160,0.068115234,0.071044922,0.794189453
1961,161,0.191894531,0.170898438,0.833007813
1962,162,0.043212891,0.157226563,0.955810547
1963,163,0.193115234,0.171875,0.967529297
1964,164,0.154541016,0.135742188,0.983398438
1965,165,0.133300781,0.082275391,0.988769531
1966,166,0.131835938,0.083007813,0.840087891
1967,167,0.208007813,0.206787109,0.923095703
1968,168,0.256103516,0.036865234,0.963378906
1969,169,0.193115234,0.111083984,0.886230469
1970,170,0.270996094,0.048583984,0.928955078
1971,171,0.184570313,0.154541016,0.858886719
1972,172,0.080078125,0.131347656,0.755371094
1973,173,0.061523438,0.099365234,1.021972656
1974,174,0.209472656,0.018554688,0.989257813
1975,175,0.159423828,0.072753906,0.894775391
1976,176,0.113037109,0.111083984,0.864990234
1977,177,0.086181641,0.150146484,1.107177734
1978,178,0.030517578,0.074462891,0.935302734
1979,179,0.076171875,0.118164063,0.962158203
1980,180,0.029296875,0.104736328,0.893554688
1981,181,0.081298828,0.101318359,0.868164063
1982,182,0.043701172,0.106933594,0.913574219
1983,183,0.104248047,0.077636719,0.920898438
1984,184,0.127441406,0.024169922,0.903320313
1985,185,0.090820313,0.116943359,0.851074219
1986,186,0.063720703,0.108398438,0.909667969
1987,187,0.090820313,0.079589844,0.9296875
1988,188,0.062011719,0.095214844,0.846435547
1989,189,0.098144531,0.114990234,0.775390625
1990,190,0.05859375,0.087158203,0.907226563
1991,191,0.089599609,0.071044922,0.867675781
1992,192,0.052490234,0.036865234,0.914550781
1993,193,0.12890625,0.096923828,0.883300781
1994,194,0.100097656,0.106933594,0.991699219
1995,0,0.107910156,0.086181641,0.884033203
1996,1,0.097167969,0.101806641,0.912597656
1997,2,0.112304688,0.09765625,0.919189453
1998,3,0.104492188,0.097412109,0.908447266
1999,4,0.097167969,0.096923828,0.926269531
2000,5,0.118164063,0.088378906,0.886230469
2001,6,0.121337891,0.075439453,0.909423828
2002,7,0.12890625,0.0625,0.877685547
2003,8,0.121337891,0.069091797,0.872558594
2004,9,0.11328125,0.064697266,0.903076172
2005,10,0.092529297,0.105224609,0.888183594
2006,11,0.108154297,0.097412109,0.931884766
2007,12,0.098632813,0.110351563,0.935791016
2008,13,0.110839844,0.103271484,0.923583984
2009,14,0.105712891,0.101074219,0.921630859
2010,15,0.15234375,0.027587891,0.947021484
2011,16,0.127685547,0.018554688,0.967285156
2012,17,0.115966797,-0.030273438,0.924316406
2013,18,0.121826172,-0.033203125,0.942626953
2014,19,0.120849609,-0.051269531,0.947265625
2015,20,0.128173828,-0.062744141,0.928466797
2016,21,0.145263672,-0.078369141,0.919189453
2017,22,0.149169922,-0.138183594,0.893310547
2018,23,0.115722656,-0.099609375,0.938964844
2019,24,0.118896484,-0.143798828,0.988769531
2020,25,0.073974609,-0.026855469,0.932861328
2021,26,0.104003906,-0.042236328,0.933105469
2022,27,0.119384766,-0.027099609,0.885498047
2023,28,0.089599609,-0.025634766,0.899902344
2024,29,0.099365234,-0.032958984,0.979980469
2025,30,0.089599609,-0.037841797,0.957519531
2026,31,0.1015625,-0.050048828,0.916259766
2027,32,0.145263672,-0.087158203,0.865234375
2028,33,0.141357422,-0.056884766,0.908447266
2029,34,0.133056641,-0.050292969,0.923828125
2030,35,0.21875,-0.097167969,0.806884766
2031,36,0.191650391,-0.104492188,0.966064453
2032,37,0.136230469,-0.064697266,1.062255859
2033,38,0.104492188,-0.073486328,0.983642578
2034,39,0.088378906,-0.069824219,0.925537109
2035,40,0.125488281,-0.15234375,0.891113281
2036,41,0.004394531,0.019042969,1.020507813
2037,42,0.096679688,0.089111328,0.888183594
2038,43,0.127197266,0.118652344,0.854736328
2039,44,0.077392578,0.106689453,0.882568359
2040,45,0.073974609,0.069824219,0.905761719
2041,46,0.090576172,0.122070313,0.893798828
2042,47,0.084228516,0.161865234,0.950439453
2043,48,-0.012207031,0.08203125,0.944091797
2044,49,0.084716797,0.018066406,0.944580078
2045,50,0.158935547,-0.185791016,0.865478516
2046,51,0.174804688,-0.115966797,0.942138672
2047,52,0.158447266,-0.08984375,0.929931641
2048,53,0.062988281,-0.03125,1.047119141
2049,54,0.060546875,-0.065673828,1.020263672
2050,55,0.01953125,-0.08203125,0.971191406
2051,56,0.005615234,-0.11328125,0.924560547
2052,57,0.012939453,-0.124511719,0.942138672
2053,58,0.103027344,-0.041748047,0.911865234
2054,59,0.118652344,-0.123291016,0.912109375
2055,60,0.312011719,-0.045166016,0.901611328
2056,61,0.095458984,-0.048828125,0.981933594
2057,62,0.034912109,-0.092529297,0.9765625
2058,63,0.026855469,-0.038574219,1.052490234
2059,64,0.059326172,-0.085449219,0.865722656
2060,65,0.057617188,-0.084960938,0.955078125
2061,66,0.196289063,-0.137207031,0.879394531
2062,67,0.162353516,-0.148681641,0.905761719
2063,68,-0.018798828,-0.110595703,0.993896484
2064,69,0.150390625,0.059814453,0.784667969
2065,70,0.178710938,0.091552734,0.775878906
2066,71,0.181884766,0.117431641,0.812011719
2067,72,0.064453125,0.162353516,0.816894531
2068,73,0.162597656,0.111816406,0.830566406
2069,74,0.066650391,0.094238281,0.871582031
2070,75,0.042724609,0.034912109,0.9453125
2071,76,0.033203125,-0.041503906,0.890625
2072,77,0.131591797,-0.063232422,0.966796875
2073,78,0.133056641,-0.056152344,0.916015625
2074,79,0.176269531,-0.008056641,0.906005859
2075,80,0.209472656,0.055419922,0.944824219
2076,81,0.15625,-0.07421875,0.956787109
2077,82,0.142333984,-0.058349609,0.874023438
2078,83,0.101806641,0.001464844,0.939208984
2079,84,0.055908203,0.008789063,0.941650391
2080,85,0.067871094,0.002685547,0.9921875
2081,86,0.104003906,-0.052490234,0.951904297
2082,87,0.191162109,-0.007324219,0.860595703
2083,88,0.086914063,0.034912109,0.971435547
2084,89,0.156005859,-0.050048828,0.875732422
2085,90,0.027099609,-0.080322266,0.900878906
2086,91,0.188476563,-0.046630859,0.711669922
2087,92,0.053222656,0.010986328,0.895019531
2088,93,0.114746094,0.041015625,0.834960938
2089,94,0.123291016,0.032226563,0.914550781
2090,95,0.056152344,0.041503906,0.868652344
2091,96,0.093261719,0.109130859,1.038574219
2092,97,0.183837891,0.078613281,0.924072266
2093,98,0.05859375,0.190673828,0.940917969
2094,99,0.119873047,0.012451172,0.929931641
2095,100,0.139892578,0.063476563,0.872314453
2096,101,0.114990234,0.064697266,0.961914063
2097,102,0.173828125,0.072021484,0.868896484
2098,103,0.16796875,0.058349609,0.90234375
2099,104,0.105957031,0.079101563,1.015136719
2100,50,0.124511719,-0.033447266,0.952636719
2101,51,0.126953125,-0.026611328,0.919677734
2102,52,0.109130859,-0.017822266,0.943847656
2103,53,0.112060547,-0.008300781,0.915527344
2104,54,0.132568359,0.015136719,0.892822266
2105,55,0.105712891,0.023193359,0.953369141
2106,56,0.103759766,0.0078125,0.95703125
2107,57,0.083740234,0.037841797,0.960449219
2108,58,0.087158203,0.041503906,0.971191406
2109,59,0.085693359,0.012695313,0.869873047
2110,60,0.106445313,0.023193359,0.904541016
2111,61,0.075683594,0.031738281,0.981445313
2112,62,0.087890625,0.017089844,0.916015625
2113,63,0.112060547,0.03125,0.939208984
2114,64,0.098876953,0.073730469,0.937011719
2115,65,0.093261719,0.065185547,0.918945313
2116,66,0.078369141,0.015380859,0.91015625
2117,67,0.089599609,-0.008544922,0.942138672
2118,68,0.118652344,0.013671875,0.933837891
2119,69,0.091308594,0.010498047,0.933349609
2120,70,0.087402344,0.02734375,0.919189453
2121,71,0.108154297,0.00390625,0.922363281
2122,72,0.081542969,0.154052734,0.874267578
2123,73,0.037597656,0.109619141,0.903564453
2124,74,0.145019531,0.116943359,0.920410156
2125,75,0.157714844,0.079345703,0.895996094
2126,76,0.147705078,0.138427734,0.922851563
2127,77,0.152099609,0.089111328,0.9453125
2128,78,0.152099609,0.099365234,0.898193359
2129,79,0.118896484,0.054443359,0.931884766
2130,80,0.108154297,0.072021484,0.862792969
2131,81,0.103515625,0.005859375,0.859619141
2132,82,0.069091797,-0.014404297,0.968017578
2133,83,0.079589844,-0.001953125,0.942871094
2134,84,0.110595703,0.000732422,0.898193359
2135,85,0.096191406,0.017578125,0.922607422
2136,86,0.113037109,-0.007324219,0.939941406
2137,87,0.125,-0.006103516,0.909423828
2138,88,0.098388672,0.001953125,0.914550781
2139,89,0.142578125,0.041992188,0.96875
2140,90,0.10546875,-0.020263672,0.964599609
2141,91,0.152587891,-0.013183594,0.910644531
2142,92,0.129394531,0.041992188,0.907226563
2143,93,0.093261719,0.062255859,0.902587891
2144,94,0.138427734,0.036132813,0.961181641
2145,95,0.177490234,0.015869141,0.922607422
2146,96,0.090576172,0.043945313,0.933349609
2147,97,0.086181641,0.066894531,0.90625
2148,98,0.033203125,0.058837891,0.904541016
2149,99,0.163818359,0.086669922,0.928466797
2150,100,0.088134766,0.110351563,0.920166016
2151,101,0.082763672,0.076416016,0.8984375
2152,102,0.0703125,0.070556641,0.870361328
2153,103,0.087890625,0.099853516,0.910888672
2154,104,0.077880859,0.147949219,0.916748047
2155,105,0.122802734,0.119384766,0.862060547
2156,106,0.137207031,0.114746094,0.842041016
2157,107,0.177246094,0.081298828,0.870849609
2158,108,0.166259766,0.139404297,0.918701172
2159,109,0.201171875,0.066894531,0.919433594
2160,110,0.198486328,0.0546875,0.917724609
2161,111,0.229736328,0.112304688,0.948486328
2162,112,0.168701172,0.10546875,0.880859375
2163,113,0.233398438,0.166015625,0.880371094
2164,114,0.199707031,0.119384766,0.947265625
2165,115,0.137939453,0.114013672,0.927490234
2166,116,0.085693359,0.117919922,0.958984375
2167,117,0.167724609,0.112060547,0.876220703
2168,118,0.154541016,0.082275391,0.874755859
2169,119,0.073242188,0.102783203,0.947265625
2170,120,0.116699219,0.112304688,0.87890625
2171,121,0.069580078,0.084472656,0.884765625
2172,122,0.08203125,0.115966797,0.928955078
2173,123,0.066650391,0.098876953,0.934082031
2174,124,0.115722656,0.126708984,0.985351563
2175,125,0.144287109,0.107177734,0.927246094
2176,126,0.128173828,0.123779297,0.936035156
2177,127,0.104492188,0.109863281,0.965820313
2178,128,0.131103516,0.097900391,0.973876953
2179,129,0.134033203,0.084716797,0.897705078
2180,130,0.150390625,0.084960938,0.894287109
2181,131,0.135986328,0.070800781,0.890136719
2182,132,0.124267578,0.084472656,0.944335938
2183,133,0.134277344,0.085449219,0.91796875
2184,134,0.107177734,0.102050781,0.909667969
2185,135,0.041015625,0.130615234,0.912353516
2186,136,0.051513672,0.080322266,0.954345703
2187,137,0.109619141,0.066162109,0.923095703
2188,138,0.092773438,0.035400391,0.938964844
2189,139,0.194335938,0.022216797,0.9140625
2190,140,0.154052734,0.027587891,0.903320313
2191,141,0.130371094,0.062011719,0.868164063
2192,142,0.082763672,0.03125,0.961914063
2193,143,0.080810547,0.030273438,0.901855469
2194,144,0.078369141,-0.013671875,0.892089844
2195,145,0.091552734,0.008300781,0.900878906
2196,146,0.141357422,0.120117188,0.982910156
2197,147,0.123291016,0.107421875,0.930664063
2198,148,0.100341797,0.065429688,0.921630859
2199,149,0.126708984,0.017822266,0.977783203
2200,150,0.105224609,0.049804688,0.890869141
2201,151,0.076171875,0.027587891,0.904296875
2202,152,0.090332031,0.031738281,0.996582031
2203,153,0.05078125,0.029541016,1.02734375
2204,154,0.090576172,0.051757813,0.977783203
2205,155,0.144775391,0.023193359,0.959472656
2206,156,0.108642578,0.013427734,0.901367188
2207,157,0.140380859,0.052734375,0.923095703
2208,158,0.099365234,0.034179688,0.927734375
2209,159,0.166992188,0.077636719,0.890380859
2210,160,0.130371094,0.061767578,0.965576172
2211,161,0.110595703,0.021972656,0.888671875
2212,162,0.108886719,0.058837891,0.907958984
2213,163,0.078369141,0.093017578,0.926269531
2214,164,0.098388672,0.067138672,0.873046875
2215,165,0.114501953,0.088867188,0.857666016
2216,166,0.145751953,0.125732422,0.915039063
2217,167,0.116943359,0.058105469,0.870361328
2218,168,0.088134766,0.079589844,0.881347656
2219,169,0.181640625,0.073486328,0.886474609
2220,170,0.071044922,0.133300781,0.99609375
2221,171,0.086181641,0.136474609,0.990478516
2222,172,0.068847656,0.14453125,0.951171875
2223,173,0.068359375,0.154296875,1.012207031
2224,174,0.102294922,0.08984375,0.911621094
2225,175,0.158691406,0.031494141,0.876464844
2226,176,0.125976563,0.079589844,0.992431641
2227,177,0.271484375,0.045898438,0.888183594
2228,178,0.215820313,0.137207031,0.893554688
2229,179,0.150878906,0.034423828,0.932617188
2230,180,0.119140625,0.013916016,0.875244141
2231,181,0.076660156,0.038330078,0.960205078
2232,182,0.019042969,0.067382813,0.967285156
2233,183,0.106445313,0.035400391,0.919433594
2234,184,0.144775391,0.056152344,0.890380859
2235,185,0.137695313,0.026367188,0.87109375
2236,186,0.153564453,0.030029297,0.859375
2237,187,0.111816406,0.030517578,0.99609375
2238,188,0.129394531,0.044433594,0.894775391
2239,189,0.104980469,0.08984375,0.938964844
2240,190,0.120849609,0.099365234,0.921630859
2241,191,0.159423828,0.033447266,0.883789063
2242,192,0.041015625,0.043701172,0.922119141
2243,193,0.079589844,-0.0078125,0.908691406
2244,194,0.198486328,0.058837891,0.929199219
2245,195,0.147705078,-0.000732422,0.854736328
2246,196,0.165527344,0.047851563,0.872070313
2247,197,0.115478516,0.060791016,0.965820313
2248,198,0.197021484,0.049072266,0.903320313
2249,199,0.148925781,0.049072266,0.975341797
2250,200,0.150390625,0.128173828,0.93359375
2251,201,0.162597656,0.085693359,0.862304688
2252,202,0.137695313,0.129394531,0.909667969
2253,203,0.117431641,0.135986328,0.859130859
2254,204,0.109863281,0.118408203,0.820068359
2255,205,0.120849609,0.0859375,0.91796875
2256,206,0.1328125,0.103027344,0.919433594
2257,207,0.129394531,0.148925781,0.947265625
2258,208,0.045166016,0.155273438,0.946044922
2259,209,0.028320313,0.109619141,0.956787109
2260,210,0.15234375,0.116699219,0.925537109
2261,211,0.159179688,0.099365234,0.867675781
2262,212,0.059814453,0.146728516,0.924072266
2263,213,0.157226563,0.165283203,0.982177734
2264,214,0.140380859,0.181396484,0.952392578
2265,215,0.100341797,0.148925781,0.93359375
2266,216,0.262207031,0.050048828,0.954345703
2267,217,0.105957031,0.148681641,0.967285156
2268,218,0.147216797,0.171386719,0.940185547
2269,219,0.045654297,0.20703125,0.903808594
2270,220,0.095458984,0.149414063,0.779541016
2271,221,0.102783203,0.167724609,0.862304688
2272,222,0.15234375,0.142089844,0.872558594
2273,223,0.143066406,0.149169922,0.894287109
2274,224,0.106933594,0.171630859,0.976806641
2275,225,0.103027344,0.119384766,0.983398438
2276,226,0.102783203,0.044677734,0.958740234
2277,227,0.101806641,0.093505859,0.948730469
2278,228,0.104248047,0.086181641,0.890625
2279,229,0.100830078,0.111816406,0.955810547
2280,230,0.046875,0.087158203,0.907470703
2281,231,0.015625,0.128662109,0.963134766
2282,232,0.060791016,0.138671875,0.901123047
2283,233,0.141113281,0.139892578,0.975585938
2284,234,0.103271484,0.201904297,0.981201172
2285,235,0.064453125,0.116943359,0.941650391
2286,236,0.144042969,0.090820313,0.920166016
2287,237,0.130126953,0.030761719,0.882080078
2288,238,0.070556641,0.143554688,0.953369141
2289,239,0.103027344,0.129394531,0.922119141
2290,240,0.128662109,0.077148438,0.896484375
2291,241,0.134033203,0.043701172,0.882324219
2292,242,0.159667969,0.048095703,0.823974609
2293,243,0.041259766,0.032226563,0.877685547
2294,244,0.138427734,0.017333984,0.858154297
2295,245,0.177246094,0.117431641,0.864257813
2296,246,0.106689453,0.126220703,0.952636719
2297,247,0.161376953,0.133056641,1.007324219
2298,248,0.133300781,0.080566406,0.932373047
2299,249,0.150146484,0.120849609,0.928710938
2300,250,0.024658203,0.157470703,0.974121094
2301,251,0.009277344,0.144042969,1.03125
2302,252,0.029052734,0.062988281,0.958984375
2303,253,0.065673828,0.103759766,0.941162109
2304,254,0.098876953,0.103759766,0.855224609
2305,255,0.108154297,0.093505859,0.904052734
2306,256,0.128417969,0.080566406,0.916748047
2307,257,0.03515625,0.103271484,0.936767578
2308,258,-0.020263672,0.130859375,0.935791016
2309,259,0.013427734,0.094726563,0.866210938
2310,260,0.062988281,0.093017578,0.895751953
2311,261,0.105957031,0.065673828,0.909179688
2312,262,0.114746094,0.083984375,0.965087891
2313,263,0.072021484,0.095214844,0.993652344
2314,264,0.075439453,0.167724609,0.972412109
2315,265,0.059570313,0.099365234,0.938476563
2316,266,0.1328125,0.073242188,0.883300781
2317,267,0.056396484,0.095214844,0.956298828
2318,268,0.094238281,0.084716797,0.926513672
2319,269,0.160644531,0.081542969,0.806152344
2320,270,0.12109375,0.120605469,0.927490234
2321,271,0.067382813,0.109863281,0.922851563
2322,272,0.090820313,0.123046875,0.948486328
2323,273,0.090332031,0.113769531,0.895996094
2324,274,0.145507813,0.100830078,0.879638672
2325,275,0.152832031,0.053710938,0.903808594
2326,276,0.143310547,0.039306641,0.863769531
2327,277,0.201660156,0.009521484,0.874755859
2328,278,0.058105469,0.024169922,0.8984375
2329,279,0.148681641,0.046875,0.919433594
2330,280,0.076904297,0.040527344,0.8984375
2331,281,0.098144531,0.047607422,0.832275391
2332,282,0.142822266,0.035888672,0.885742188
2333,283,0.157714844,0.058837891,0.896240234
2334,284,0.077880859,0.072021484,0.865966797
2335,285,0.080810547,0.103759766,0.974121094
2336,286,0.087402344,0.058837891,0.911621094
2337,287,-0.069824219,0.135253906,0.947509766
2338,288,-0.051513672,0.215332031,0.95703125
2339,289,0.009521484,0.054199219,0.910400391
2340,290,0.068115234,0.092285156,0.931884766
2341,291,0.151611328,0.094238281,0.969238281
2342,292,0.165283203,0.063476563,0.961669922
2343,293,0.188964844,0.01953125,0.912597656
2344,294,0.185791016,0.001708984,0.817138672
2345,295,0.2109375,0.022949219,0.849121094
2346,296,0.184814453,0.058837891,0.934814453
2347,297,0.201904297,0.059570313,0.802490234
2348,298,0.15234375,0.026367188,0.867675781
2349,299,0.168457031,0.020019531,0.836914063
2350,300,0.104003906,0.054931641,0.911376953
2351,301,0.15234375,0.039550781,0.950195313
2352,302,0.156738281,0.055175781,0.935058594
2353,303,0.158447266,0.062988281,0.873535156
2354,304,0.092529297,0.082763672,0.869140625
2355,305,0.137207031,0.047607422,0.935546875
2356,306,0.110839844,0.098876953,0.969238281
2357,307,0.170410156,0.055908203,0.894042969
2358,308,0.131103516,0.102539063,0.968261719
2359,309,0.125488281,0.056396484,0.914794922
2360,310,0.143310547,0.057861328,0.910400391
2361,311,0.107421875,0.063964844,0.939208984
2362,312,0.139160156,0.075195313,0.864990234
2363,313,0.141113281,0.051757813,0.848144531
2364,314,0.135253906,0.075927734,0.930175781
2365,315,0.129394531,0.099609375,0.924072266
2366,316,0.120849609,0.081542969,0.939208984
2367,317,0.154296875,0.063720703,0.887451172
2368,318,0.201904297,0.053710938,0.913085938
2369,319,0.205566406,0.159179688,0.890625
2370,320,0.195068359,0.072509766,0.915527344
2371,321,0.086914063,0.067871094,0.943603516
2372,322,0.033447266,0.115966797,0.98046875
2373,323,0.0234375,0.084960938,0.936523438
2374,324,0.094970703,0.057128906,0.893310547
2375,325,0.093017578,0.060302734,0.892578125
2376,326,0.088623047,0.102294922,0.894287109
2377,327,0.105957031,0.091796875,0.914794922
2378,328,0.143798828,0.071777344,0.873535156
2379,329,0.173583984,0.06640625,0.830566406
2380,330,0.091552734,0.05859375,0.848388672
2381,331,0.063964844,0.064697266,0.881835938
2382,332,0.091796875,0.093994141,0.947998047
2383,333,0.091552734,0.072509766,0.964599609
2384,334,0.103027344,0.089599609,0.913330078
2385,335,0.080078125,0.14453125,0.866943359
2386,336,0.098632813,0.110351563,0.890136719
2387,337,0.103759766,0.100585938,0.903808594
2388,338,0.109619141,0.104492188,0.862792969
2389,339,0.10546875,0.1015625,0.879882813
2390,340,0.049072266,0.119140625,0.891845703
2391,341,0.050048828,0.111572266,0.864990234
2392,342,0.104492188,0.10546875,0.934082031
2393,343,0.122070313,0.134033203,0.947998047
2394,344,0.123779297,0.084716797,0.916503906
2395,345,0.112304688,0.129638672,0.914306641
2396,346,0.137695313,0.118896484,0.945800781
2397,347,0.104003906,0.138916016,0.927490234
2398,348,0.122314453,0.140869141,0.913330078
2399,349,0.131103516,0.118164063,0.924560547
2400,85,0.083984375,-0.074951172,0.92578125
2401,86,0.12109375,-0.069335938,1.043212891
2402,87,0.141113281,-0.093017578,0.887939453
2403,88,0.167724609,-0.122802734,0.902832031
2404,89,0.186279297,-0.082519531,0.916015625
2405,90,0.182617188,-0.096679688,0.938964844
2406,91,0.124511719,-0.0546875,0.902832031
2407,92,0.104736328,-0.108398438,0.835449219
2408,93,0.143066406,-0.029541016,0.899902344
2409,94,0.120361328,0.044189453,0.870605469
2410,95,0.124023438,0.110107422,0.882324219
2411,96,0.004882813,0.192871094,0.979980469
2412,97,0.072021484,0.021484375,0.810791016
2413,98,0.026367188,0.075195313,0.900390625
2414,99,0.025146484,0.065673828,0.900878906
2415,100,0.130371094,-0.083007813,0.912841797
2416,101,0.201660156,-0.088623047,0.905761719
2417,102,0.103027344,-0.082275391,0.903076172
2418,103,0.087402344,0.020263672,0.979248047
2419,104,0.144042969,-0.127929688,0.788085938
2420,105,0.009277344,-0.151611328,0.887695313
2421,106,0.040283203,-0.090576172,0.918701172
2422,107,-0.007080078,-0.004882813,0.905273438
2423,108,0.100830078,0.012207031,0.937255859
2424,109,0.085693359,-0.104736328,0.957763672
2425,110,0.028320313,-0.052978516,0.873779297
2426,111,-0.0078125,-0.101318359,0.918945313
2427,112,0.016601563,-0.185058594,0.935546875
2428,113,0.007568359,-0.176513672,0.974853516
2429,114,0.002685547,-0.196533203,0.968994141
2430,115,0.037353516,-0.177001953,0.992919922
2431,116,0.205566406,-0.101318359,1.075439453
2432,117,0.168457031,-0.138427734,1.092529297
2433,118,0.099853516,-0.120605469,0.886474609
2434,119,0.108886719,0.136962891,0.869873047
2435,120,0.157714844,-0.039550781,0.821289063
2436,121,0.09375,-0.015136719,0.810791016
2437,122,0.117675781,-0.069091797,0.799560547
2438,123,0.126220703,0.063964844,0.849609375
2439,124,0.127197266,0.130371094,0.780761719
2440,125,0.046875,0.223388672,0.927978516
2441,126,0.092529297,0.145507813,0.900878906
2442,127,0.090087891,0.150634766,0.896728516
2443,128,0.113037109,0.152832031,0.993652344
2444,129,0.082519531,0.150634766,0.830566406
2445,130,0.088867188,0.112060547,1.00390625
2446,131,0.040283203,0.164794922,0.936279297
2447,132,0.135498047,0.037841797,0.925292969
2448,133,0.173583984,0.168212891,0.854248047
2449,134,0.239501953,0.172363281,0.845458984
2450,135,0.19140625,0.145507813,0.930664063
2451,136,0.103027344,0.142578125,0.935791016
2452,137,0.101806641,0.003417969,0.981445313
2453,138,0.186035156,0.06640625,0.769775391
2454,139,0.02734375,0.126464844,0.913818359
2455,140,0.163085938,0.090576172,0.848144531
2456,141,0.114501953,0.075439453,0.9453125
2457,142,0.070800781,0.086181641,0.950195313
2458,143,0.19921875,0.078125,0.801513672
2459,144,0.225341797,0.004394531,0.917480469
2460,145,0.104248047,0.05078125,0.910644531
2461,146,0.087646484,-0.020996094,0.895263672
2462,147,0.239013672,0.031005859,0.776367188
2463,148,0.020263672,0.123779297,1.067626953
2464,149,0.26171875,0.054931641,0.846435547
2465,150,0.085205078,0.171142578,0.985839844
2466,151,0.058837891,0.068359375,0.904541016
2467,152,0.110107422,-0.014160156,0.791748047
2468,153,0.114257813,0.115966797,0.961425781
2469,154,0.170410156,0.042724609,0.916503906
2470,155,0.140380859,0.003417969,0.885009766
2471,156,0.240234375,0.022216797,0.799072266
2472,157,0.243652344,0.062011719,0.850585938
2473,158,0.263916016,0.045654297,0.887207031
2474,159,0.169433594,0.088623047,0.862548828
2475,160,0.038085938,0.057617188,0.851806641
2476,161,0.109130859,0.053466797,0.914306641
2477,162,-0.051025391,0.134033203,1.024169922
2478,163,0.080078125,0.008544922,0.802734375
2479,164,0.152587891,0.152099609,0.972167969
2480,165,0.094238281,0.1171875,0.907226563
2481,166,0.103271484,0.047119141,0.980712891
2482,167,0.146972656,0.102294922,0.888183594
2483,168,0.252685547,0.085205078,1.0234375
2484,169,0.071044922,0.126708984,1.032958984
2485,170,0.117675781,0.064208984,0.863037109
2486,171,0.172363281,0.029052734,0.849853516
2487,172,0.206054688,0.047363281,0.826171875
2488,173,-0.064208984,0.05859375,0.839355469
2489,174,0.141601563,-0.065673828,0.915771484
2490,175,0.122558594,0.164794922,0.907226563
2491,176,0.031005859,0.157958984,0.909423828
2492,177,0.098876953,0.112060547,1.031738281
2493,178,0.1171875,0.044921875,0.923095703
2494,179,0.117675781,0.1171875,0.919677734
2495,180,0.114501953,0.029052734,0.948730469
2496,181,0.159423828,0.04296875,0.923339844
2497,182,0.119873047,0.090820313,0.919921875
2498,183,0.088867188,0.025634766,0.813964844
2499,184,0.107421875,0.075927734,0.848632813
2500,85,0.083984375,-0.074951172,0.92578125
2501,86,0.12109375,-0.069335938,1.043212891
2502,87,0.141113281,-0.093017578,0.887939453
2503,88,0.167724609,-0.122802734,0.902832031
2504,89,0.186279297,-0.082519531,0.916015625
2505,90,0.182617188,-0.096679688,0.938964844
2506,91,0.124511719,-0.0546875,0.902832031
2507,92,0.104736328,-0.108398438,0.835449219
2508,93,0.143066406,-0.029541016,0.899902344
2509,94,0.120361328,0.044189453,0.870605469
2510,95,0.124023438,0.110107422,0.882324219
2511,96,0.004882813,0.192871094,0.979980469
2512,97,0.072021484,0.021484375,0.810791016
2513,98,0.026367188,0.075195313,0.900390625
2514,99,0.025146484,0.065673828,0.900878906
2515,100,0.130371094,-0.083007813,0.912841797
2516,101,0.201660156,-0.088623047,0.905761719
2517,102,0.103027344,-0.082275391,0.903076172
2518,103,0.087402344,0.020263672,0.979248047
2519,104,0.144042969,-0.127929688,0.788085938
2520,105,0.009277344,-0.151611328,0.887695313
2521,106,0.040283203,-0.090576172,0.918701172
2522,107,-0.007080078,-0.004882813,0.905273438
2523,108,0.100830078,0.012207031,0.937255859
2524,109,0.085693359,-0.104736328,0.957763672
2525,110,0.028320313,-0.052978516,0.873779297
2526,111,-0.0078125,-0.101318359,0.918945313
2527,112,0.016601563,-0.185058594,0.935546875
2528,113,0.007568359,-0.176513672,0.974853516
2529,114,0.002685547,-0.196533203,0.968994141
2530,115,0.037353516,-0.177001953,0.992919922
2531,116,0.205566406,-0.101318359,1.075439453
2532,117,0.168457031,-0.138427734,1.092529297
2533,118,0.099853516,-0.120605469,0.886474609
2534,119,0.108886719,0.136962891,0.869873047
2535,120,0.157714844,-0.039550781,0.821289063
2536,121,0.09375,-0.015136719,0.810791016
2537,122,0.117675781,-0.069091797,0.799560547
2538,123,0.126220703,0.063964844,0.849609375
2539,124,0.127197266,0.130371094,0.780761719
2540,125,0.046875,0.223388672,0.927978516
2541,126,0.092529297,0.145507813,0.900878906
2542,127,0.090087891,0.150634766,0.896728516
2543,128,0.113037109,0.152832031,0.993652344
2544,129,0.082519531,0.150634766,0.830566406
2545,130,0.088867188,0.112060547,1.00390625
2546,131,0.040283203,0.164794922,0.936279297
2547,132,0.135498047,0.037841797,0.925292969
2548,133,0.173583984,0.168212891,0.854248047
2549,134,0.239501953,0.172363281,0.845458984
2550,135,0.19140625,0.145507813,0.930664063
2551,136,0.103027344,0.142578125,0.935791016
2552,137,0.101806641,0.003417969,0.981445313
2553,138,0.186035156,0.06640625,0.769775391
2554,139,0.02734375,0.126464844,0.913818359
2555,140,0.163085938,0.090576172,0.848144531
2556,141,0.114501953,0.075439453,0.9453125
2557,142,0.070800781,0.086181641,0.950195313
2558,143,0.19921875,0.078125,0.801513672
2559,144,0.225341797,0.004394531,0.917480469
2560,145,0.104248047,0.05078125,0.910644531
2561,146,0.087646484,-0.020996094,0.895263672
2562,147,0.239013672,0.031005859,0.776367188
2563,148,0.020263672,0.123779297,1.067626953
2564,149,0.26171875,0.054931641,0.846435547
2565,150,0.085205078,0.171142578,0.985839844
2566,151,0.058837891,0.068359375,0.904541016
2567,152,0.110107422,-0.014160156,0.791748047
2568,153,0.114257813,0.115966797,0.961425781
2569,154,0.170410156,0.042724609,0.916503906
2570,155,0.140380859,0.003417969,0.885009766
2571,156,0.240234375,0.022216797,0.799072266
2572,157,0.243652344,0.062011719,0.850585938
2573,158,0.263916016,0.045654297,0.887207031
2574,159,0.169433594,0.088623047,0.862548828
2575,160,0.038085938,0.057617188,0.851806641
2576,161,0.109130859,0.053466797,0.914306641
2577,162,-0.051025391,0.134033203,1.024169922
2578,163,0.080078125,0.008544922,0.802734375
2579,164,0.152587891,0.152099609,0.972167969
2580,165,0.094238281,0.1171875,0.907226563
2581,166,0.103271484,0.047119141,0.980712891
2582,167,0.146972656,0.102294922,0.888183594
2583,168,0.252685547,0.085205078,1.0234375
2584,169,0.071044922,0.126708984,1.032958984
2585,170,0.117675781,0.064208984,0.863037109
2586,171,0.172363281,0.029052734,0.849853516
2587,172,0.206054688,0.047363281,0.826171875
2588,173,-0.064208984,0.05859375,0.839355469
2589,174,0.141601563,-0.065673828,0.915771484
2590,175,0.122558594,0.164794922,0.907226563
2591,176,0.031005859,0.157958984,0.909423828
2592,177,0.098876953,0.112060547,1.031738281
2593,178,0.1171875,0.044921875,0.923095703
2594,179,0.117675781,0.1171875,0.919677734
2595,180,0.114501953,0.029052734,0.948730469
2596,181,0.159423828,0.04296875,0.923339844
2597,182,0.119873047,0.090820313,0.919921875
2598,183,0.088867188,0.025634766,0.813964844
2599,184,0.107421875,0.075927734,0.848632813
2600,85,0.083984375,-0.074951172,0.92578125
2601,86,0.12109375,-0.069335938,1.043212891
2602,87,0.141113281,-0.093017578,0.887939453
2603,88,0.167724609,-0.122802734,0.902832031
2604,89,0.186279297,-0.082519531,0.916015625
2605,90,0.182617188,-0.096679688,0.938964844
2606,91,0.124511719,-0.0546875,0.902832031
2607,92,0.104736328,-0.108398438,0.835449219
2608,93,0.143066406,-0.029541016,0.899902344
2609,94,0.120361328,0.044189453,0.870605469
2610,95,0.124023438,0.110107422,0.882324219
2611,96,0.004882813,0.192871094,0.979980469
2612,97,0.072021484,0.021484375,0.810791016
2613,98,0.026367188,0.075195313,0.900390625
2614,99,0.025146484,0.065673828,0.900878906
2615,100,0.130371094,-0.083007813,0.912841797
2616,101,0.201660156,-0.088623047,0.905761719
2617,102,0.103027344,-0.082275391,0.903076172
2618,103,0.087402344,0.020263672,0.979248047
2619,104,0.144042969,-0.127929688,0.788085938
2620,105,0.009277344,-0.151611328,0.887695313
2621,106,0.040283203,-0.090576172,0.918701172
2622,107,-0.007080078,-0.004882813,0.905273438
2623,108,0.100830078,0.012207031,0.937255859
2624,109,0.085693359,-0.104736328,0.957763672
2625,110,0.028320313,-0.052978516,0.873779297
2626,111,-0.0078125,-0.101318359,0.918945313
2627,112,0.016601563,-0.185058594,0.935546875
2628,113,0.007568359,-0.176513672,0.974853516
2629,114,0.002685547,-0.196533203,0.968994141
2630,115,0.037353516,-0.177001953,0.992919922
2631,116,0.205566406,-0.101318359,1.075439453
2632,117,0.168457031,-0.138427734,1.092529297
2633,118,0.099853516,-0.120605469,0.886474609
2634,119,0.108886719,0.136962891,0.869873047
2635,120,0.157714844,-0.039550781,0.821289063
2636,121,0.09375,-0.015136719,0.810791016
2637,122,0.117675781,-0.069091797,0.799560547
2638,123,0.126220703,0.063964844,0.849609375
2639,124,0.127197266,0.130371094,0.780761719
2640,125,0.046875,0.223388672,0.927978516
2641,126,0.092529297,0.145507813,0.900878906
2642,127,0.090087891,0.150634766,0.896728516
2643,128,0.113037109,0.152832031,0.993652344
2644,129,0.082519531,0.150634766,0.830566406
2645,130,0.088867188,0.112060547,1.00390625
2646,131,0.040283203,0.164794922,0.936279297
2647,132,0.135498047,0.037841797,0.925292969
2648,133,0.173583984,0.168212891,0.854248047
2649,134,0.239501953,0.172363281,0.845458984
2650,135,0.19140625,0.145507813,0.930664063
2651,136,0.103027344,0.142578125,0.935791016
2652,137,0.101806641,0.003417969,0.981445313
2653,138,0.186035156,0.06640625,0.769775391
2654,139,0.02734375,0.126464844,0.913818359
2655,140,0.163085938,0.090576172,0.848144531
2656,141,0.114501953,0.075439453,0.9453125
2657,142,0.070800781,0.086181641,0.950195313
2658,143,0.19921875,0.078125,0.801513672
2659,144,0.225341797,0.004394531,0.917480469
2660,145,0.104248047,0.05078125,0.910644531
2661,146,0.087646484,-0.020996094,0.895263672
2662,147,0.239013672,0.031005859,0.776367188
2663,148,0.020263672,0.123779297,1.067626953
2664,149,0.26171875,0.054931641,0.846435547
2665,150,0.085205078,0.171142578,0.985839844
2666,151,0.058837891,0.068359375,0.904541016
2667,152,0.110107422,-0.014160156,0.791748047
2668,153,0.114257813,0.115966797,0.961425781
2669,154,0.170410156,0.042724609,0.916503906
2670,155,0.140380859,0.003417969,0.885009766
2671,156,0.240234375,0.022216797,0.799072266
2672,157,0.243652344,0.062011719,0.850585938
2673,158,0.263916016,0.045654297,0.887207031
2674,159,0.169433594,0.088623047,0.862548828
2675,160,0.038085938,0.057617188,0.851806641
2676,161,0.109130859,0.053466797,0.914306641
2677,162,-0.051025391,0.134033203,1.024169922
2678,163,0.080078125,0.008544922,0.802734375
2679,164,0.152587891,0.152099609,0.972167969
2680,165,0.094238281,0.1171875,0.907226563
2681,166,0.103271484,0.047119141,0.980712891
2682,167,0.146972656,0.102294922,0.888183594
2683,168,0.252685547,0.085205078,1.0234375
2684,169,0.071044922,0.126708984,1.032958984
2685,170,0.117675781,0.064208984,0.863037109
2686,171,0.172363281,0.029052734,0.849853516
2687,172,0.206054688,0.047363281,0.826171875
2688,173,-0.064208984,0.05859375,0.839355469
2689,174,0.141601563,-0.065673828,0.915771484
2690,175,0.122558594,0.164794922,0.907226563
2691,176,0.031005859,0.157958984,0.909423828
2692,177,0.098876953,0.112060547,1.031738281
2693,178,0.1171875,0.044921875,0.923095703
2694,179,0.117675781,0.1171875,0.919677734
2695,180,0.114501953,0.029052734,0.948730469
2696,181,0.159423828,0.04296875,0.923339844
2697,182,0.119873047,0.090820313,0.919921875
2698,183,0.088867188,0.025634766,0.813964844
2699,184,0.107421875,0.075927734,0.848632813
2700,0,0.119384766,0.083251953,0.888183594
2701,1,0.096923828,0.09765625,0.891601563
2702,2,0.104736328,0.106445313,0.948974609
2703,3,0.111816406,0.086669922,0.937988281
2704,4,0.098876953,0.097167969,0.902587891
2705,5,0.094970703,0.086181641,0.889160156
2706,6,0.119873047,0.0703125,0.8984375
2707,7,0.140380859,0.063964844,0.885253906
2708,8,0.124267578,0.100830078,0.902587891
2709,9,0.107910156,0.103027344,0.894287109
2710,10,0.117431641,0.096191406,0.931884766
2711,11,0.099853516,0.091552734,0.927978516
2712,12,0.104003906,0.107910156,0.910644531
2713,13,0.104248047,0.091552734,0.910888672
2714,14,0.115478516,0.086914063,0.890869141
2715,15,0.11328125,0.082275391,0.891113281
2716,16,0.11328125,0.088378906,0.883789063
2717,17,0.115478516,0.094970703,0.919921875
2718,18,0.1015625,0.098388672,0.937988281
2719,19,0.111083984,0.099609375,0.934082031
2720,0,0.119384766,0.083251953,0.888183594
2721,1,0.096923828,0.09765625,0.891601563
2722,2,0.104736328,0.106445313,0.948974609
2723,3,0.111816406,0.086669922,0.937988281
2724,4,0.098876953,0.097167969,0.902587891
2725,5,0.094970703,0.086181641,0.889160156
2726,6,0.119873047,0.0703125,0.8984375
2727,7,0.140380859,0.063964844,0.885253906
2728,8,0.124267578,0.100830078,0.902587891
2729,9,0.107910156,0.103027344,0.894287109
2730,10,0.117431641,0.096191406,0.931884766
2731,11,0.099853516,0.091552734,0.927978516
2732,12,0.104003906,0.107910156,0.910644531
