countOBU,countRSU,latitude,longitude,Ax,Ay,Az,datetime,timeFromBeginning
1,1,0,0,0.119384766,0.083251953,0.888183594,54:02.2,00:00.1
2,2,0,0,0.096923828,0.09765625,0.891601563,54:02.2,00:00.1
3,3,0,0,0.104736328,0.106445313,0.948974609,54:02.3,00:00.2
4,4,0,0,0.111816406,0.086669922,0.937988281,54:02.4,00:00.3
5,5,0,0,0.098876953,0.097167969,0.902587891,54:02.5,00:00.4
6,6,0,0,0.094970703,0.086181641,0.889160156,54:02.5,00:00.4
7,7,0,0,0.119873047,0.0703125,0.8984375,54:02.6,00:00.5
8,8,0,0,0.140380859,0.063964844,0.885253906,54:02.6,00:00.5
9,9,0,0,0.124267578,0.100830078,0.902587891,54:02.7,00:00.6
10,10,19.286736,-99.140329,0.107910156,0.103027344,0.894287109,54:03.2,00:01.1
11,11,19.286736,-99.140329,0.117431641,0.096191406,0.931884766,54:03.2,00:01.1
12,12,19.286736,-99.140329,0.099853516,0.091552734,0.927978516,54:03.3,00:01.2
13,13,19.286736,-99.140329,0.104003906,0.107910156,0.910644531,54:03.4,00:01.3
14,14,19.286736,-99.140329,0.104248047,0.091552734,0.910888672,54:03.5,00:01.4
15,15,19.286736,-99.140329,0.115478516,0.086914063,0.890869141,54:03.5,00:01.4
16,16,19.286736,-99.140329,0.11328125,0.082275391,0.891113281,54:03.6,00:01.5
17,17,19.286736,-99.140329,0.11328125,0.088378906,0.883789063,54:03.6,00:01.5
18,18,19.286736,-99.140329,0.115478516,0.094970703,0.919921875,54:03.7,00:01.6
19,19,19.28673633,-99.14032733,0.1015625,0.098388672,0.937988281,54:04.2,00:02.1
20,20,19.28673633,-99.14032733,0.111083984,0.099609375,0.934082031,54:04.3,00:02.2
21,21,19.28673633,-99.14032733,0.120361328,0.080322266,0.905029297,54:04.4,00:02.3
22,22,19.28673633,-99.14032733,0.112792969,0.090087891,0.938964844,54:04.4,00:02.3
23,23,19.28673633,-99.14032733,0.098144531,0.099121094,0.922607422,54:04.5,00:02.4
24,24,19.28673633,-99.14032733,0.123046875,0.102539063,0.900634766,54:04.5,00:02.4
25,25,19.28673633,-99.14032733,0.115966797,0.092041016,0.883789063,54:04.6,00:02.5
26,26,19.28673633,-99.14032733,0.106445313,0.100097656,0.936279297,54:05.9,00:03.8
27,27,19.28673633,-99.14032733,0.123535156,0.092285156,0.905029297,54:05.9,00:03.8
28,28,19.2867365,-99.14032617,0.109375,0.080322266,0.913085938,54:05.9,00:03.8
29,29,19.2867365,-99.14032617,0.123535156,0.079833984,0.887939453,54:05.9,00:03.8
30,30,19.2867365,-99.14032617,0.111816406,0.083496094,0.897216797,54:06.0,00:03.8
31,31,19.2867365,-99.14032617,0.108154297,0.093505859,0.934082031,54:06.0,00:03.9
32,32,19.2867365,-99.14032617,0.105224609,0.091064453,0.953613281,54:06.0,00:03.9
33,33,19.2867365,-99.14032617,0.11328125,0.105712891,0.903564453,54:06.0,00:03.9
34,34,19.2867365,-99.14032617,0.099121094,0.098876953,0.931396484,54:06.0,00:03.9
35,35,19.2867365,-99.14032617,0.110351563,0.091552734,0.889160156,54:06.1,00:04.0
36,36,19.2867365,-99.14032617,0.119873047,0.094238281,0.935546875,54:06.1,00:04.0
37,37,19.286737,-99.14032483,0.121582031,0.097412109,0.931396484,54:06.2,00:04.1
38,38,19.286737,-99.14032483,0.107666016,0.094726563,0.942626953,54:06.2,00:04.1
39,39,19.286737,-99.14032483,0.098144531,0.094238281,0.932617188,54:06.3,00:04.2
40,40,19.286737,-99.14032483,0.124755859,0.107910156,0.930419922,54:06.4,00:04.3
41,41,19.286737,-99.14032483,0.099121094,0.088134766,0.930664063,54:06.5,00:04.4
42,42,19.286737,-99.14032483,0.108154297,0.092773438,0.903076172,54:06.5,00:04.4
43,43,19.286737,-99.14032483,0.108886719,0.091552734,0.910888672,54:06.6,00:04.5
44,44,19.286737,-99.14032483,0.108154297,0.093261719,0.881835938,54:06.6,00:04.5
45,45,19.286737,-99.14032483,0.111328125,0.069091797,0.890625,54:06.7,00:04.6
46,46,19.28673767,-99.14032233,0.112060547,0.086914063,0.951660156,54:07.2,00:05.1
47,47,19.28673767,-99.14032233,0.109130859,0.082763672,0.915283203,54:07.2,00:05.1
48,48,19.28673767,-99.14032233,0.120361328,0.102050781,0.939697266,54:07.3,00:05.2
49,49,19.28673767,-99.14032233,0.106201172,0.099853516,0.95703125,54:07.4,00:05.3
50,50,19.28673767,-99.14032233,0.120361328,0.097900391,0.936279297,54:07.5,00:05.4
51,51,19.28673767,-99.14032233,0.115966797,0.092773438,0.907958984,54:08.7,00:06.6
52,52,19.28673767,-99.14032233,0.119873047,0.082763672,0.880126953,54:08.8,00:06.7
53,53,19.28673767,-99.14032233,0.124755859,0.086914063,0.883789063,54:08.8,00:06.7
54,54,19.28673767,-99.14032233,0.117919922,0.094726563,0.943603516,54:08.8,00:06.7
55,55,19.28673817,-99.14032083,0.102539063,0.096923828,0.934570313,54:08.8,00:06.7
56,56,19.28673817,-99.14032083,0.118164063,0.088867188,0.902099609,54:08.8,00:06.7
57,57,19.28673817,-99.14032083,0.109863281,0.098144531,0.913330078,54:08.8,00:06.7
58,58,19.28673817,-99.14032083,0.114257813,0.085449219,0.885009766,54:08.9,00:06.8
59,59,19.28673817,-99.14032083,0.110351563,0.102050781,0.952880859,54:08.9,00:06.8
60,60,19.28673817,-99.14032083,0.120605469,0.099853516,0.922119141,54:08.9,00:06.8
61,61,19.28673817,-99.14032083,0.116943359,0.077392578,0.901123047,54:08.9,00:06.8
62,62,19.28673817,-99.14032083,0.114501953,0.096679688,0.914306641,54:08.9,00:06.8
63,63,19.28673817,-99.14032083,0.107421875,0.084716797,0.885986328,54:08.9,00:06.8
64,64,19.286739,-99.1403185,0.098144531,0.090087891,0.947509766,54:09.2,00:07.1
65,65,19.286739,-99.1403185,0.115966797,0.107666016,0.889404297,54:09.4,00:07.3
66,66,19.286739,-99.1403185,0.108886719,0.095703125,0.892089844,54:09.4,00:07.3
67,67,19.286739,-99.1403185,0.104736328,0.090820313,0.933105469,54:09.4,00:07.3
68,68,19.286739,-99.1403185,0.09375,0.0859375,0.9375,54:09.5,00:07.4
69,69,19.286739,-99.1403185,0.114990234,0.091796875,0.924072266,54:09.5,00:07.4
70,70,19.286739,-99.1403185,0.122558594,0.100097656,0.903564453,54:09.6,00:07.5
71,71,19.286739,-99.1403185,0.123779297,0.079833984,0.894287109,54:09.6,00:07.5
72,72,19.286739,-99.1403185,0.113525391,0.081298828,0.90234375,54:09.7,00:07.6
73,73,19.28673967,-99.14031683,0.124267578,0.092285156,0.882080078,54:10.2,00:08.1
74,74,19.28673967,-99.14031683,0.113769531,0.089599609,0.891357422,54:10.2,00:08.1
75,75,19.28673967,-99.14031683,0.099853516,0.089355469,0.923583984,54:10.3,00:08.2
76,76,19.28673967,-99.14031683,0.112304688,0.077636719,0.921630859,54:11.7,00:09.6
77,77,19.28673967,-99.14031683,0.112060547,0.088867188,0.893554688,54:11.8,00:09.7
78,78,19.28673967,-99.14031683,0.109375,0.08203125,0.950195313,54:11.8,00:09.7
79,79,19.28673967,-99.14031683,0.118408203,0.105224609,0.931884766,54:11.8,00:09.7
80,80,19.28673967,-99.14031683,0.098144531,0.093994141,0.933349609,54:11.8,00:09.7
81,81,19.28673967,-99.14031683,0.115722656,0.072998047,0.882324219,54:11.8,00:09.7
82,82,19.28674033,-99.14031433,0.119140625,0.108154297,0.920654297,54:11.8,00:09.7
83,83,19.28674033,-99.14031433,0.107421875,0.093505859,0.895996094,54:11.8,00:09.7
84,84,19.28674033,-99.14031433,0.111572266,0.069335938,0.905761719,54:11.9,00:09.7
85,85,19.28674033,-99.14031433,0.115478516,0.100585938,0.893554688,54:11.9,00:09.8
86,86,19.28674033,-99.14031433,0.109863281,0.090820313,0.901367188,54:11.9,00:09.8
87,87,19.28674033,-99.14031433,0.117919922,0.072998047,0.885986328,54:11.9,00:09.8
88,88,19.28674033,-99.14031433,0.119384766,0.083740234,0.889648438,54:11.9,00:09.8
89,89,19.28674033,-99.14031433,0.106689453,0.101318359,0.925292969,54:11.9,00:09.8
90,90,19.28674033,-99.14031433,0.109863281,0.081298828,0.908447266,54:12.0,00:09.9
91,91,19.286741,-99.14031133,0.117675781,0.082275391,0.873291016,54:12.2,00:10.1
92,92,19.286741,-99.14031133,0.140136719,0.087402344,0.878662109,54:12.2,00:10.1
93,93,19.286741,-99.14031133,0.122314453,0.089111328,0.889892578,54:12.3,00:10.2
94,94,19.286741,-99.14031133,0.108398438,0.098876953,0.895263672,54:12.4,00:10.3
95,95,19.286741,-99.14031133,0.104003906,0.100830078,0.918945313,54:12.5,00:10.4
96,96,19.286741,-99.14031133,0.095458984,0.103271484,0.936767578,54:12.5,00:10.4
97,97,19.286741,-99.14031133,0.102783203,0.094238281,0.933349609,54:12.6,00:10.5
98,98,19.286741,-99.14031133,0.106933594,0.102783203,0.940429688,54:12.6,00:10.5
99,99,19.286741,-99.14031133,0.117675781,0.087158203,0.9609375,54:12.7,00:10.6
100,100,19.2867415,-99.14030867,0.105712891,0.084960938,0.8984375,54:13.2,00:11.1
101,101,19.2867415,-99.14030867,0.122802734,0.090087891,0.912841797,54:14.4,00:12.3
102,102,19.2867415,-99.14030867,0.111816406,0.090087891,0.924804688,54:14.4,00:12.3
103,103,19.2867415,-99.14030867,0.100341797,0.082763672,0.911132813,54:14.4,00:12.3
104,104,19.2867415,-99.14030867,0.117919922,0.079833984,0.891601563,54:14.4,00:12.3
105,105,19.2867415,-99.14030867,0.104980469,0.08203125,0.890380859,54:14.5,00:12.4
106,106,19.2867415,-99.14030867,0.113525391,0.086425781,0.920654297,54:14.5,00:12.4
107,107,19.2867415,-99.14030867,0.124267578,0.080566406,0.903076172,54:14.5,00:12.4
108,108,19.2867415,-99.14030867,0.098876953,0.093994141,0.947021484,54:14.5,00:12.4
109,109,19.28674183,-99.1403065,0.109863281,0.108886719,0.916015625,54:14.5,00:12.4
110,110,19.28674183,-99.1403065,0.091552734,0.12109375,0.934082031,54:14.5,00:12.4
111,111,19.28674183,-99.1403065,0.112792969,0.105957031,0.940673828,54:14.6,00:12.5
112,112,19.28674183,-99.1403065,0.109863281,0.08984375,0.887939453,54:14.6,00:12.5
113,113,19.28674183,-99.1403065,0.11328125,0.095947266,0.952392578,54:14.6,00:12.5
114,114,19.28674183,-99.1403065,0.114990234,0.090576172,0.915527344,54:14.6,00:12.5
115,115,19.28674183,-99.1403065,0.118408203,0.099853516,0.875,54:14.6,00:12.5
116,116,19.28674183,-99.1403065,0.115722656,0.0859375,0.903320313,54:14.6,00:12.5
117,117,19.28674183,-99.1403065,0.1171875,0.084228516,0.904296875,54:14.7,00:12.6
118,118,19.28674183,-99.14030517,0.119873047,0.103271484,0.887207031,54:15.2,00:13.1
119,119,19.28674183,-99.14030517,0.095458984,0.078613281,0.874267578,54:15.2,00:13.1
120,120,19.28674183,-99.14030517,0.116455078,0.075927734,0.883056641,54:15.3,00:13.2
121,121,19.28674183,-99.14030517,0.105957031,0.079101563,0.883300781,54:15.4,00:13.3
122,122,19.28674183,-99.14030517,0.120849609,0.079833984,0.921142578,54:15.5,00:13.4
123,123,19.28674183,-99.14030517,0.094238281,0.087646484,0.938720703,54:15.5,00:13.4
124,124,19.28674183,-99.14030517,0.106689453,0.082275391,0.941162109,54:15.6,00:13.5
125,125,19.28674183,-99.14030517,0.094238281,0.094238281,0.934570313,54:15.6,00:13.5
126,126,19.28674183,-99.14030517,0.115478516,0.093017578,0.878662109,54:16.9,00:14.8
127,127,19.28674183,-99.14030367,0.116455078,0.077636719,0.911621094,54:16.9,00:14.8
128,128,19.28674183,-99.14030367,0.114990234,0.084716797,0.884765625,54:16.9,00:14.8
129,129,19.28674183,-99.14030367,0.118408203,0.097167969,0.874511719,54:17.0,00:14.9
130,130,19.28674183,-99.14030367,0.112792969,0.08203125,0.930175781,54:17.0,00:14.9
131,131,19.28674183,-99.14030367,0.117919922,0.091064453,0.875488281,54:17.0,00:14.9
132,132,19.28674183,-99.14030367,0.102050781,0.107421875,0.894775391,54:17.0,00:14.9
133,133,19.28674183,-99.14030367,0.110839844,0.083984375,0.940917969,54:17.0,00:14.9
134,134,19.28674183,-99.14030367,0.098388672,0.104492188,0.930419922,54:17.0,00:14.9
135,135,19.28674183,-99.14030367,0.10546875,0.094726563,0.9375,54:17.0,00:14.9
136,136,19.28674183,-99.14030183,0.108154297,0.094238281,0.944580078,54:17.2,00:15.1
137,137,19.28674183,-99.14030183,0.116699219,0.096923828,0.954345703,54:17.2,00:15.1
138,138,19.28674183,-99.14030183,0.107666016,0.103271484,0.938720703,54:17.5,00:15.4
139,139,19.28674183,-99.14030183,0.097167969,0.078613281,0.894287109,54:17.5,00:15.4
140,140,19.28674183,-99.14030183,0.110839844,0.102294922,0.8984375,54:17.5,00:15.4
141,141,19.28674183,-99.14030183,0.100585938,0.104492188,0.937744141,54:17.5,00:15.4
142,142,19.28674183,-99.14030183,0.112060547,0.107910156,0.915527344,54:17.6,00:15.5
143,143,19.28674183,-99.14030183,0.113525391,0.086914063,0.881103516,54:17.6,00:15.5
144,144,19.28674183,-99.14030183,0.097900391,0.083740234,0.891357422,54:17.7,00:15.6
145,145,19.286742,-99.14030067,0.099853516,0.093994141,0.936279297,54:18.2,00:16.1
146,146,19.286742,-99.14030067,0.104736328,0.093261719,0.934570313,54:18.2,00:16.1
147,147,19.286742,-99.14030067,0.114257813,0.106689453,0.941650391,54:18.3,00:16.2
148,148,19.286742,-99.14030067,0.120605469,0.086669922,0.930908203,54:18.4,00:16.3
149,149,19.286742,-99.14030067,0.107910156,0.084472656,0.918701172,54:18.5,00:16.4
150,150,19.286742,-99.14030067,0.124755859,0.086425781,0.889404297,54:18.5,00:16.4
151,151,19.286742,-99.14030067,0.112792969,0.098632813,0.939453125,54:19.8,00:17.7
152,152,19.286742,-99.14030067,0.095703125,0.09765625,0.949707031,54:19.8,00:17.7
153,153,19.286742,-99.14030067,0.116943359,0.097412109,0.912353516,54:19.9,00:17.7
154,154,19.28674167,-99.14030067,0.101806641,0.09375,0.948730469,54:19.9,00:17.8
155,155,19.28674167,-99.14030067,0.113525391,0.098144531,0.903076172,54:19.9,00:17.8
156,156,19.28674167,-99.14030067,0.112304688,0.086181641,0.895019531,54:19.9,00:17.8
157,157,19.28674167,-99.14030067,0.114990234,0.090087891,0.9296875,54:19.9,00:17.8
158,158,19.28674167,-99.14030067,0.11328125,0.087890625,0.889892578,54:19.9,00:17.8
159,159,19.28674167,-99.14030067,0.120361328,0.091308594,0.888916016,54:19.9,00:17.8
160,160,19.28674167,-99.14030067,0.108398438,0.105957031,0.936279297,54:20.0,00:17.9
161,161,19.28674167,-99.14030067,0.102294922,0.08984375,0.900390625,54:20.0,00:17.9
162,162,19.28674167,-99.14030067,0.112060547,0.097167969,0.940185547,54:20.0,00:17.9
163,163,19.28674117,-99.14030067,0.119873047,0.090820313,0.920898438,54:20.2,00:18.1
164,164,19.28674117,-99.14030067,0.118652344,0.080322266,0.909179688,54:20.2,00:18.1
165,165,19.28674117,-99.14030067,0.103271484,0.096435547,0.928466797,54:20.3,00:18.2
166,166,19.28674117,-99.14030067,0.099121094,0.106201172,0.942626953,54:20.4,00:18.3
167,167,19.28674117,-99.14030067,0.100341797,0.098876953,0.929931641,54:20.5,00:18.4
168,168,19.28674117,-99.14030067,0.095703125,0.095947266,0.926025391,54:20.5,00:18.4
169,169,19.28674117,-99.14030067,0.105712891,0.084228516,0.923828125,54:20.6,00:18.5
170,170,19.28674117,-99.14030067,0.111572266,0.096923828,0.885498047,54:20.6,00:18.5
171,171,19.28674117,-99.14030067,0.121582031,0.082519531,0.922851563,54:20.7,00:18.6
172,172,19.28674067,-99.14030017,0.123779297,0.086181641,0.884765625,54:21.2,00:19.1
173,173,19.28674067,-99.14030017,0.12109375,0.079345703,0.881347656,54:21.2,00:19.1
174,174,19.28674067,-99.14030017,0.112304688,0.080322266,0.901855469,54:21.3,00:19.2
175,175,19.28674067,-99.14030017,0.113769531,0.079101563,0.917724609,54:21.4,00:19.3
176,176,19.28674067,-99.14030017,0.094726563,0.103759766,0.927490234,54:22.6,00:20.5
177,177,19.28674067,-99.14030017,0.1015625,0.095214844,0.922119141,54:22.6,00:20.5
178,178,19.28674067,-99.14030017,0.123535156,0.083984375,0.933837891,54:22.6,00:20.5
179,179,19.28674067,-99.14030017,0.098632813,0.098144531,0.94140625,54:22.6,00:20.5
180,180,19.28674067,-99.14030017,0.130615234,0.093261719,0.900146484,54:22.6,00:20.5
181,181,19.28674033,-99.14029983,0.097412109,0.0859375,0.896484375,54:22.6,00:20.5
182,182,19.28674033,-99.14029983,0.112792969,0.091308594,0.883300781,54:22.6,00:20.5
183,183,19.28674033,-99.14029983,0.122558594,0.080322266,0.888916016,54:22.7,00:20.5
184,184,19.28674033,-99.14029983,0.1015625,0.089111328,0.938964844,54:22.7,00:20.6
185,185,19.28674033,-99.14029983,0.114257813,0.086425781,0.903564453,54:22.7,00:20.6
186,186,19.28674033,-99.14029983,0.094482422,0.090820313,0.887451172,54:22.7,00:20.6
187,187,19.28674033,-99.14029983,0.120849609,0.107177734,0.923095703,54:22.7,00:20.6
188,188,19.28674033,-99.14029983,0.113769531,0.108154297,0.876220703,54:22.7,00:20.6
189,189,19.28674033,-99.14029983,0.094482422,0.09375,0.948730469,54:22.7,00:20.6
190,190,19.28674,-99.140299,0.101318359,0.087402344,0.940429688,54:23.2,00:21.1
191,191,19.28674,-99.140299,0.100341797,0.085449219,0.920654297,54:23.2,00:21.1
192,192,19.28674,-99.140299,0.112792969,0.08984375,0.919677734,54:23.3,00:21.2
193,193,19.28674,-99.140299,0.113525391,0.078125,0.916259766,54:23.4,00:21.3
194,194,19.28674,-99.140299,0.126708984,0.084960938,0.882568359,54:23.5,00:21.4
195,195,19.28674,-99.140299,0.124023438,0.080322266,0.89453125,54:23.5,00:21.4
196,196,19.28674,-99.140299,0.12890625,0.074707031,0.929199219,54:23.6,00:21.5
197,197,19.28674,-99.140299,0.108642578,0.078857422,0.923828125,54:23.6,00:21.5
198,198,19.28674,-99.140299,0.107421875,0.098388672,0.879394531,54:23.7,00:21.6
199,199,19.28673967,-99.1402985,0.118652344,0.091552734,0.887939453,54:24.2,00:22.1
200,200,19.28673967,-99.1402985,0.110839844,0.084716797,0.889892578,54:24.2,00:22.1
201,201,19.28673967,-99.1402985,0.103271484,0.108642578,0.913574219,54:25.5,00:23.4
202,202,19.28673967,-99.1402985,0.098632813,0.094482422,0.928466797,54:25.5,00:23.4
203,203,19.28673967,-99.1402985,0.111572266,0.096679688,0.896484375,54:25.5,00:23.4
204,204,19.28673967,-99.1402985,0.104003906,0.102294922,0.924072266,54:25.5,00:23.4
205,205,19.28673967,-99.1402985,0.106933594,0.091308594,0.884033203,54:25.6,00:23.5
206,206,19.28673967,-99.1402985,0.110107422,0.088867188,0.945068359,54:25.6,00:23.5
207,207,19.28673967,-99.1402985,0.111328125,0.103027344,0.895507813,54:25.6,00:23.5
208,208,19.286739,-99.14030033,0.121826172,0.091308594,0.908203125,54:25.6,00:23.5
209,209,19.286739,-99.14030033,0.11328125,0.099365234,0.940673828,54:25.6,00:23.5
210,210,19.286739,-99.14030033,0.117675781,0.092529297,0.883544922,54:25.7,00:23.6
211,211,19.286739,-99.14030033,0.100341797,0.096923828,0.938964844,54:25.7,00:23.6
212,212,19.286739,-99.14030033,0.130371094,0.068847656,0.890625,54:25.7,00:23.6
213,213,19.286739,-99.14030033,0.106689453,0.106201172,0.899902344,54:25.7,00:23.6
214,214,19.286739,-99.14030033,0.118652344,0.104003906,0.881591797,54:25.8,00:23.7
215,215,19.286739,-99.14030033,0.109619141,0.091064453,0.919677734,54:25.8,00:23.7
216,216,19.286739,-99.14030033,0.111328125,0.096435547,0.927001953,54:25.8,00:23.7
217,217,19.28673867,-99.14030083,0.12890625,0.082275391,0.886474609,54:26.2,00:24.1
218,218,19.28673867,-99.14030083,0.1328125,0.088867188,0.875976563,54:26.2,00:24.1
219,219,19.28673867,-99.14030083,0.106445313,0.092773438,0.904296875,54:26.3,00:24.2
220,220,19.28673867,-99.14030083,0.099609375,0.101806641,0.92578125,54:26.4,00:24.3
221,221,19.28673867,-99.14030083,0.109130859,0.101806641,0.940673828,54:26.5,00:24.4
222,222,19.28673867,-99.14030083,0.099121094,0.109130859,0.927246094,54:26.5,00:24.4
223,223,19.28673867,-99.14030083,0.101074219,0.099121094,0.931640625,54:26.6,00:24.5
224,224,19.28673867,-99.14030083,0.112304688,0.095214844,0.927490234,54:26.6,00:24.5
225,225,19.28673867,-99.14030083,0.094482422,0.09765625,0.946289063,54:26.7,00:24.6
226,226,19.28673817,-99.1403035,0.115478516,0.092041016,0.935058594,54:27.9,00:25.8
227,227,19.28673817,-99.1403035,0.111816406,0.087890625,0.942138672,54:27.9,00:25.8
228,228,19.28673817,-99.1403035,0.109619141,0.091552734,0.912109375,54:27.9,00:25.8
229,229,19.28673817,-99.1403035,0.110839844,0.085205078,0.910644531,54:28.0,00:25.9
230,230,19.28673817,-99.1403035,0.114257813,0.108886719,0.890625,54:28.0,00:25.9
231,231,19.28673817,-99.1403035,0.105224609,0.093017578,0.914306641,54:28.0,00:25.9
232,232,19.28673817,-99.1403035,0.122558594,0.089599609,0.878662109,54:28.0,00:25.9
233,233,19.28673817,-99.1403035,0.1015625,0.099121094,0.937744141,54:28.0,00:25.9
234,234,19.28673817,-99.1403035,0.105957031,0.105957031,0.948730469,54:28.0,00:25.9
235,235,19.2867375,-99.1403055,0.131835938,0.065429688,0.89453125,54:28.2,00:26.1
236,236,19.2867375,-99.1403055,0.140380859,0.087402344,0.907714844,54:28.2,00:26.1
237,237,19.2867375,-99.1403055,0.104980469,0.103759766,0.916992188,54:28.3,00:26.2
238,238,19.2867375,-99.1403055,0.101806641,0.109375,0.940429688,54:28.4,00:26.3
239,239,19.2867375,-99.1403055,0.101318359,0.099121094,0.927978516,54:28.5,00:26.4
240,240,19.2867375,-99.1403055,0.094482422,0.12109375,0.952392578,54:28.5,00:26.4
241,241,19.2867375,-99.1403055,0.103759766,0.092529297,0.920410156,54:28.6,00:26.5
242,242,19.2867375,-99.1403055,0.119873047,0.099853516,0.912353516,54:28.6,00:26.5
243,243,19.2867375,-99.1403055,0.126464844,0.088134766,0.924316406,54:28.7,00:26.6
244,244,19.286737,-99.14030817,0.106689453,0.089355469,0.881591797,54:29.2,00:27.1
245,245,19.286737,-99.14030817,0.107910156,0.081787109,0.903076172,54:29.2,00:27.1
246,246,19.286737,-99.14030817,0.120117188,0.075683594,0.901123047,54:29.3,00:27.2
247,247,19.286737,-99.14030817,0.121582031,0.076171875,0.888916016,54:29.4,00:27.3
248,248,19.286737,-99.14030817,0.109130859,0.087158203,0.923339844,54:29.5,00:27.4
249,249,19.286737,-99.14030817,0.118408203,0.063476563,0.90625,54:29.5,00:27.4
250,250,19.286737,-99.14030817,0.116210938,0.088378906,0.951904297,54:29.6,00:27.5
251,251,19.286737,-99.14030817,0.118652344,0.083251953,0.881103516,54:31.1,00:29.0
252,252,19.286737,-99.14030817,0.106445313,0.096191406,0.945800781,54:31.2,00:29.1
253,253,19.2867365,-99.14031,0.122802734,0.096923828,0.927978516,54:31.2,00:29.1
254,254,19.2867365,-99.14031,0.09375,0.085205078,0.917236328,54:31.2,00:29.1
255,255,19.2867365,-99.14031,0.122314453,0.098876953,0.938232422,54:31.2,00:29.1
256,256,19.2867365,-99.14031,0.123535156,0.071044922,0.896972656,54:31.2,00:29.1
257,257,19.2867365,-99.14031,0.122802734,0.083740234,0.916503906,54:31.2,00:29.1
258,258,19.2867365,-99.14031,0.104248047,0.089355469,0.927734375,54:31.3,00:29.2
259,259,19.2867365,-99.14031,0.122802734,0.089111328,0.875488281,54:31.3,00:29.2
260,260,19.2867365,-99.14031,0.109863281,0.086669922,0.894042969,54:31.3,00:29.2
261,261,19.2867365,-99.14031,0.102783203,0.098144531,0.925537109,54:31.3,00:29.2
262,262,19.28673633,-99.1403115,0.120849609,0.073242188,0.931884766,54:31.3,00:29.2
263,263,19.28673633,-99.1403115,0.116943359,0.103271484,0.927490234,54:31.3,00:29.2
264,264,19.28673633,-99.1403115,0.094482422,0.092285156,0.915527344,54:31.4,00:29.3
265,265,19.28673633,-99.1403115,0.110595703,0.092773438,0.895751953,54:31.4,00:29.3
266,266,19.28673633,-99.1403115,0.122558594,0.088623047,0.875244141,54:31.5,00:29.4
267,267,19.28673633,-99.1403115,0.11328125,0.086425781,0.905761719,54:31.5,00:29.4
268,268,19.28673633,-99.1403115,0.115234375,0.08984375,0.948242188,54:31.6,00:29.5
269,269,19.28673633,-99.1403115,0.115478516,0.086181641,0.931396484,54:31.6,00:29.5
270,270,19.28673633,-99.1403115,0.097412109,0.095947266,0.946533203,54:31.7,00:29.6
271,271,19.28673617,-99.14031267,0.102539063,0.107910156,0.918212891,54:32.2,00:30.1
272,272,19.28673617,-99.14031267,0.109619141,0.1015625,0.931640625,54:32.2,00:30.1
273,273,19.28673617,-99.14031267,0.108398438,0.082275391,0.870849609,54:32.3,00:30.2
274,274,19.28673617,-99.14031267,0.110595703,0.107910156,0.904296875,54:32.4,00:30.3
275,275,19.28673617,-99.14031267,0.118408203,0.088134766,0.874511719,54:32.5,00:30.4
276,276,19.28673617,-99.14031267,0.096435547,0.098632813,0.933837891,54:33.7,00:31.6
277,277,19.28673617,-99.14031267,0.113769531,0.086425781,0.916259766,54:33.7,00:31.6
278,278,19.28673617,-99.14031267,0.116699219,0.091064453,0.9140625,54:33.8,00:31.6
279,279,19.28673617,-99.14031267,0.096191406,0.090332031,0.923095703,54:33.8,00:31.7
280,280,19.28673633,-99.1403135,0.124755859,0.081542969,0.884521484,54:33.8,00:31.7
281,281,19.28673633,-99.1403135,0.097900391,0.096679688,0.93359375,54:33.8,00:31.7
282,282,19.28673633,-99.1403135,0.119140625,0.085693359,0.937255859,54:33.8,00:31.7
283,283,19.28673633,-99.1403135,0.094482422,0.096191406,0.899169922,54:33.8,00:31.7
284,284,19.28673633,-99.1403135,0.101806641,0.096679688,0.928710938,54:33.8,00:31.7
285,285,19.28673633,-99.1403135,0.108642578,0.067871094,0.90234375,54:33.9,00:31.8
286,286,19.28673633,-99.1403135,0.120605469,0.082275391,0.907958984,54:33.9,00:31.8
287,287,19.28673633,-99.1403135,0.128417969,0.076416016,0.869384766,54:33.9,00:31.8
288,288,19.28673633,-99.1403135,0.099609375,0.091308594,0.946289063,54:33.9,00:31.8
289,289,19.28673633,-99.14031417,0.119873047,0.081787109,0.917480469,54:34.2,00:32.1
290,290,19.28673633,-99.14031417,0.117431641,0.082275391,0.912353516,54:34.2,00:32.1
291,291,19.28673633,-99.14031417,0.112304688,0.107666016,0.916503906,54:34.3,00:32.2
292,292,19.28673633,-99.14031417,0.118408203,0.098876953,0.936035156,54:34.4,00:32.3
293,293,19.28673633,-99.14031417,0.108886719,0.097900391,0.941162109,54:34.5,00:32.4
294,294,19.28673633,-99.14031417,0.109375,0.098632813,0.911621094,54:34.5,00:32.4
295,295,19.28673633,-99.14031417,0.097412109,0.103759766,0.90625,54:34.6,00:32.5
296,296,19.28673633,-99.14031417,0.104980469,0.102050781,0.901367188,54:34.6,00:32.5
297,297,19.28673633,-99.14031417,0.116210938,0.066894531,0.893798828,54:34.7,00:32.6
298,298,19.28673633,-99.14031483,0.114013672,0.088134766,0.919677734,54:35.2,00:33.1
299,299,19.28673633,-99.14031483,0.1015625,0.085693359,0.91015625,54:35.2,00:33.1
300,300,19.28673633,-99.14031483,0.116943359,0.078369141,0.928710938,54:35.3,00:33.2
301,301,19.28673633,-99.14031483,0.110351563,0.069580078,0.928222656,54:36.6,00:34.5
302,302,19.28673633,-99.14031483,0.106933594,0.095214844,0.920898438,54:36.6,00:34.5
303,303,19.28673633,-99.14031483,0.119873047,0.095703125,0.944824219,54:36.7,00:34.6
304,304,19.28673633,-99.14031483,0.109863281,0.078613281,0.893798828,54:36.7,00:34.6
305,305,19.28673633,-99.14031483,0.117919922,0.091064453,0.888427734,54:36.7,00:34.6
306,306,19.28673633,-99.14031483,0.097412109,0.09765625,0.945556641,54:36.7,00:34.6
307,307,19.28673617,-99.14031517,0.097900391,0.098388672,0.923828125,54:36.8,00:34.7
308,308,19.28673617,-99.14031517,0.104492188,0.084716797,0.880371094,54:36.8,00:34.7
309,309,19.28673617,-99.14031517,0.118164063,0.097412109,0.885253906,54:36.8,00:34.7
310,310,19.28673617,-99.14031517,0.098388672,0.096679688,0.934082031,54:36.8,00:34.7
311,311,19.28673617,-99.14031517,0.099853516,0.108886719,0.927490234,54:36.8,00:34.7
312,312,19.28673617,-99.14031517,0.118652344,0.078613281,0.909912109,54:36.9,00:34.8
313,313,19.28673617,-99.14031517,0.095214844,0.089111328,0.934326172,54:36.9,00:34.8
314,314,19.28673617,-99.14031517,0.120849609,0.088378906,0.888916016,54:36.9,00:34.8
315,315,19.28673617,-99.14031517,0.114257813,0.081298828,0.881835938,54:36.9,00:34.8
316,316,19.286736,-99.14031583,0.112792969,0.081787109,0.894287109,54:37.2,00:35.1
317,317,19.286736,-99.14031583,0.122558594,0.077148438,0.888183594,54:37.2,00:35.1
318,318,19.286736,-99.14031583,0.118896484,0.097167969,0.885009766,54:37.3,00:35.2
319,319,19.286736,-99.14031583,0.12109375,0.092041016,0.902587891,54:37.4,00:35.3
320,320,19.286736,-99.14031583,0.119628906,0.094726563,0.9140625,54:37.5,00:35.4
321,321,19.286736,-99.14031583,0.110107422,0.099853516,0.922363281,54:37.5,00:35.4
322,322,19.286736,-99.14031583,0.105224609,0.104492188,0.945556641,54:37.6,00:35.5
323,323,19.286736,-99.14031583,0.100097656,0.103027344,0.938964844,54:37.6,00:35.5
324,324,19.286736,-99.14031583,0.108398438,0.108398438,0.902587891,54:37.7,00:35.6
325,325,19.28673583,-99.140317,0.112304688,0.097412109,0.885986328,54:38.2,00:36.1
326,326,19.28673583,-99.140317,0.108886719,0.104003906,0.906494141,54:39.6,00:37.5
327,327,19.28673583,-99.140317,0.116943359,0.079589844,0.940917969,54:39.6,00:37.5
328,328,19.28673583,-99.140317,0.09375,0.093017578,0.921630859,54:39.6,00:37.5
329,329,19.28673583,-99.140317,0.115966797,0.090332031,0.905761719,54:39.6,00:37.5
330,330,19.28673583,-99.140317,0.09765625,0.099365234,0.925537109,54:39.7,00:37.6
331,331,19.28673583,-99.140317,0.114990234,0.094238281,0.889648438,54:39.7,00:37.6
332,332,19.28673583,-99.140317,0.124755859,0.079589844,0.882568359,54:39.7,00:37.6
333,333,19.28673583,-99.140317,0.091064453,0.099365234,0.942382813,54:39.8,00:37.7
334,334,19.2867355,-99.140318,0.120117188,0.089355469,0.948974609,54:39.8,00:37.7
335,335,19.2867355,-99.140318,0.104492188,0.108154297,0.92578125,54:39.8,00:37.7
336,336,19.2867355,-99.140318,0.11328125,0.101318359,0.922851563,54:39.8,00:37.7
337,337,19.2867355,-99.140318,0.119140625,0.079101563,0.879150391,54:39.8,00:37.7
338,338,19.2867355,-99.140318,0.116943359,0.08203125,0.904052734,54:39.9,00:37.8
339,339,19.2867355,-99.140318,0.114746094,0.084716797,0.941650391,54:39.9,00:37.8
340,340,19.2867355,-99.140318,0.12109375,0.075195313,0.894775391,54:39.9,00:37.8
341,341,19.2867355,-99.140318,0.111328125,0.098388672,0.934082031,54:39.9,00:37.8
342,342,19.2867355,-99.140318,0.09765625,0.098144531,0.941650391,54:39.9,00:37.8
343,343,19.28673517,-99.14031967,0.102783203,0.103271484,0.944091797,54:40.2,00:38.1
344,344,19.28673517,-99.14031967,0.111816406,0.108398438,0.922607422,54:40.2,00:38.1
345,345,19.28673517,-99.14031967,0.093261719,0.106201172,0.947753906,54:40.3,00:38.2
346,346,19.28673517,-99.14031967,0.106201172,0.08984375,0.919189453,54:40.4,00:38.3
347,347,19.28673517,-99.14031967,0.097900391,0.090576172,0.930664063,54:40.5,00:38.4
348,348,19.28673517,-99.14031967,0.097412109,0.086181641,0.889160156,54:40.5,00:38.4
349,349,19.28673517,-99.14031967,0.107177734,0.088623047,0.896972656,54:40.6,00:38.5
350,350,19.28673517,-99.14031967,0.117919922,0.093505859,0.896484375,54:40.6,00:38.5
351,351,19.28673517,-99.14031967,0.127685547,0.080566406,0.880859375,54:41.8,00:39.7
352,352,19.28673517,-99.140321,0.107177734,0.08203125,0.883056641,54:41.8,00:39.7
353,353,19.28673517,-99.140321,0.118408203,0.083984375,0.9140625,54:41.8,00:39.7
354,354,19.28673517,-99.140321,0.118164063,0.083496094,0.911132813,54:41.8,00:39.7
355,355,19.28673517,-99.140321,0.101318359,0.094482422,0.936035156,54:41.9,00:39.8
356,356,19.28673517,-99.140321,0.108642578,0.086181641,0.923828125,54:41.9,00:39.8
357,357,19.28673517,-99.140321,0.127197266,0.089355469,0.874267578,54:41.9,00:39.8
358,358,19.28673517,-99.140321,0.109130859,0.09375,0.902099609,54:41.9,00:39.8
359,359,19.28673517,-99.140321,0.135742188,0.088378906,0.875732422,54:41.9,00:39.8
360,360,19.28673517,-99.140321,0.110351563,0.094970703,0.888427734,54:41.9,00:39.8
361,361,19.28673483,-99.1403235,0.104248047,0.084716797,0.884033203,54:42.2,00:40.1
362,362,19.28673483,-99.1403235,0.114257813,0.090087891,0.870117188,54:42.3,00:40.2
363,363,19.28673483,-99.1403235,0.123535156,0.073974609,0.895019531,54:42.3,00:40.2
364,364,19.28673483,-99.1403235,0.139892578,0.073486328,0.894775391,54:42.4,00:40.3
365,365,19.28673483,-99.1403235,0.116455078,0.0625,0.885498047,54:42.5,00:40.4
366,366,19.28673483,-99.1403235,0.113769531,0.088378906,0.942871094,54:42.5,00:40.4
367,367,19.28673483,-99.1403235,0.106445313,0.078369141,0.943359375,54:42.6,00:40.5
368,368,19.28673483,-99.1403235,0.095947266,0.080078125,0.924072266,54:42.7,00:40.5
369,369,19.28673483,-99.1403235,0.09765625,0.106933594,0.903808594,54:42.7,00:40.6
370,370,19.28673467,-99.14032517,0.106445313,0.088378906,0.949462891,54:43.2,00:41.1
371,371,19.28673467,-99.14032517,0.109130859,0.095214844,0.933349609,54:43.2,00:41.1
372,372,19.28673467,-99.14032517,0.117431641,0.095947266,0.927001953,54:43.3,00:41.2
373,373,19.28673467,-99.14032517,0.102294922,0.083007813,0.920898438,54:43.4,00:41.3
374,374,19.28673467,-99.14032517,0.114746094,0.094238281,0.902587891,54:43.5,00:41.4
375,375,19.28673467,-99.14032517,0.136962891,0.086669922,0.895019531,54:43.5,00:41.4
