countOBU,countRSU,latitude,longitude,Ax,Ay,Az,datetime,timeFromBeginning
1,1,0,0,0.112792969,0.091308594,0.942871094,16:09.4,00:00.2
2,2,0,0,0.116699219,0.092041016,0.919433594,16:09.5,00:00.3
3,3,0,0,0.113769531,0.086425781,0.895996094,16:09.6,00:00.4
4,4,0,0,0.124267578,0.089599609,0.875976563,16:09.6,00:00.4
5,5,0,0,0.124023438,0.079101563,0.885253906,16:09.7,00:00.5
6,6,0,0,0.101318359,0.097900391,0.936523438,16:09.7,00:00.5
7,7,19.28674617,-99.14036967,0.124267578,0.025878906,0.876220703,16:10.2,00:01.0
8,8,19.28674617,-99.14036967,0.099121094,0.039550781,0.958984375,16:10.3,00:01.1
9,9,19.28674617,-99.14036967,0.114746094,-0.004638672,0.929931641,16:10.3,00:01.1
10,10,19.28674617,-99.14036967,0.139160156,-0.020263672,0.917724609,16:10.4,00:01.2
11,11,19.28674617,-99.14036967,0.134521484,-0.057128906,0.901611328,16:10.5,00:01.3
12,12,19.28674617,-99.14036967,0.132568359,-0.041748047,0.880371094,16:10.6,00:01.4
13,13,19.28674617,-99.14036967,0.130371094,-0.058349609,0.914794922,16:10.6,00:01.4
14,14,19.28674617,-99.14036967,0.122070313,-0.052246094,0.923583984,16:10.7,00:01.5
15,15,19.28674617,-99.14036967,0.130859375,-0.070800781,0.932128906,16:10.7,00:01.5
16,16,19.28674133,-99.14037483,0.124267578,-0.155273438,0.877441406,16:11.2,00:02.0
17,17,19.28674133,-99.14037483,0.135253906,-0.141845703,0.914550781,16:11.3,00:02.1
18,18,19.28674133,-99.14037483,0.155273438,-0.137695313,0.952880859,16:11.3,00:02.1
19,19,19.28674133,-99.14037483,0.130371094,-0.129394531,0.947753906,16:11.4,00:02.2
20,20,19.28674133,-99.14037483,0.147460938,-0.118652344,0.952880859,16:11.5,00:02.3
21,21,19.28674133,-99.14037483,0.150878906,-0.075439453,0.910888672,16:11.6,00:02.4
22,22,19.28674133,-99.14037483,0.135253906,-0.089355469,0.878173828,16:11.6,00:02.4
23,23,19.28674133,-99.14037483,0.121337891,-0.109619141,0.884765625,16:11.7,00:02.5
24,24,19.28674133,-99.14037483,0.099609375,-0.127441406,0.997558594,16:11.7,00:02.5
25,25,19.28672133,-99.14037917,0.087158203,-0.076171875,0.911132813,16:12.2,00:03.0
26,26,19.28672133,-99.14037917,0.094726563,0.096191406,0.905517578,16:13.5,00:04.3
27,27,19.28672133,-99.14037917,0.061523438,0.191894531,0.931152344,16:13.5,00:04.3
28,28,19.28672133,-99.14037917,0.117919922,0.094970703,0.86328125,16:13.5,00:04.3
29,29,19.28672133,-99.14037917,0.154541016,0.098144531,0.9765625,16:13.6,00:04.4
30,30,19.28672133,-99.14037917,0.140380859,0.080322266,0.922851563,16:13.6,00:04.4
31,31,19.28672133,-99.14037917,0.170898438,0.110107422,0.825683594,16:13.6,00:04.4
32,32,19.28672133,-99.14037917,0.109863281,0.1328125,0.942626953,16:13.6,00:04.4
33,33,19.28672133,-99.14037917,0.125,0.080322266,0.916015625,16:13.6,00:04.4
34,34,19.28668467,-99.14037883,0.147949219,0.105224609,0.853759766,16:13.7,00:04.5
35,35,19.28668467,-99.14037883,0.119140625,0.150634766,0.942138672,16:13.7,00:04.5
36,36,19.28668467,-99.14037883,0.161376953,0.082275391,0.869384766,16:13.7,00:04.5
37,37,19.28668467,-99.14037883,0.138427734,0.079345703,0.935302734,16:13.7,00:04.5
38,38,19.28668467,-99.14037883,0.146972656,0.120605469,0.875,16:13.7,00:04.5
39,39,19.28668467,-99.14037883,0.14453125,0.162841797,0.967773438,16:13.8,00:04.6
40,40,19.28668467,-99.14037883,0.105224609,0.098388672,0.866699219,16:13.8,00:04.6
41,41,19.28668467,-99.14037883,0.109130859,0.102050781,0.937744141,16:13.8,00:04.6
42,42,19.28668467,-99.14037883,0.075195313,0.111328125,0.929199219,16:13.8,00:04.6
43,43,19.28664383,-99.14037567,0.091552734,-0.189941406,1.010986328,16:14.2,00:05.0
44,44,19.28664383,-99.14037567,0.135742188,-0.178710938,0.94921875,16:14.3,00:05.1
45,45,19.28664383,-99.14037567,0.111816406,-0.034912109,0.89453125,16:14.4,00:05.2
46,46,19.28664383,-99.14037567,0.027587891,0.075439453,0.886474609,16:14.4,00:05.2
47,47,19.28664383,-99.14037567,0.093994141,0.042236328,0.906005859,16:14.5,00:05.3
48,48,19.28664383,-99.14037567,0.170166016,-0.019287109,0.953369141,16:14.6,00:05.4
49,49,19.28664383,-99.14037567,0.149169922,-0.076416016,0.997314453,16:14.6,00:05.4
50,50,19.28664383,-99.14037567,0.212402344,-0.082275391,0.91015625,16:14.7,00:05.5
51,51,19.28664383,-99.14037567,0.168945313,-0.031005859,0.836669922,16:16.1,00:06.9
52,52,19.28659567,-99.14037767,0.077636719,-0.014404297,0.823242188,16:16.1,00:06.9
53,53,19.28659567,-99.14037767,0.036376953,0.039550781,0.938964844,16:16.1,00:06.9
54,54,19.28659567,-99.14037767,0.114746094,0.009521484,0.846435547,16:16.1,00:06.9
55,55,19.28659567,-99.14037767,0.013671875,0.078125,1.012451172,16:16.2,00:07.0
56,56,19.28659567,-99.14037767,0.093261719,-0.030029297,1.016113281,16:16.2,00:07.1
57,57,19.28659567,-99.14037767,0.139160156,-0.083496094,0.938232422,16:16.3,00:07.1
58,58,19.28659567,-99.14037767,0.118164063,-0.146240234,0.906738281,16:16.3,00:07.1
59,59,19.28659567,-99.14037767,0.206298828,-0.000244141,0.984863281,16:16.3,00:07.1
60,60,19.28659567,-99.14037767,0.191162109,-0.058105469,0.971923828,16:16.3,00:07.1
61,61,19.28653417,-99.14037583,0.076660156,-0.042236328,0.947509766,16:16.3,00:07.1
62,62,19.28653417,-99.14037583,0.120361328,-0.031005859,0.943847656,16:16.4,00:07.2
63,63,19.28653417,-99.14037583,0.09375,-0.030517578,0.855224609,16:16.4,00:07.2
64,64,19.28653417,-99.14037583,0.093505859,-0.004150391,0.827392578,16:16.4,00:07.2
65,65,19.28653417,-99.14037583,0.036865234,0.038818359,0.991210938,16:16.5,00:07.3
66,66,19.28653417,-99.14037583,0.019287109,0.09375,0.939208984,16:16.6,00:07.4
67,67,19.28653417,-99.14037583,0.075439453,0.101318359,0.99609375,16:16.6,00:07.4
68,68,19.28653417,-99.14037583,0.083984375,0.139892578,0.872070313,16:16.7,00:07.5
69,69,19.28653417,-99.14037583,0.110351563,0.112304688,0.934326172,16:16.8,00:07.6
70,70,19.28646183,-99.14037783,0.047607422,0.152832031,0.941894531,16:17.2,00:08.0
71,71,19.28646183,-99.14037783,-0.015380859,0.128173828,0.848876953,16:17.3,00:08.1
72,72,19.28646183,-99.14037783,0.096435547,0.081787109,0.928710938,16:17.4,00:08.2
73,73,19.28646183,-99.14037783,0.085693359,0.048339844,0.856933594,16:17.4,00:08.2
74,74,19.28646183,-99.14037783,0.137939453,0.100341797,0.855712891,16:17.5,00:08.3
75,75,19.28646183,-99.14037783,0.138671875,0.027587891,0.922119141,16:17.6,00:08.4
76,76,19.28646183,-99.14037783,0.004882813,0.036132813,0.970214844,16:18.8,00:09.6
77,77,19.28646183,-99.14037783,0.034667969,0.015869141,0.938964844,16:18.8,00:09.6
78,78,19.28646183,-99.14037783,0.094726563,0.036376953,1.002685547,16:18.8,00:09.6
79,79,19.28638817,-99.14038583,0.166503906,-0.015380859,0.936767578,16:18.8,00:09.6
80,80,19.28638817,-99.14038583,0.108154297,-0.061767578,0.856933594,16:18.9,00:09.7
81,81,19.28638817,-99.14038583,0.167480469,0.040527344,0.895019531,16:18.9,00:09.7
82,82,19.28638817,-99.14038583,0.196044922,0.105712891,0.940673828,16:18.9,00:09.7
83,83,19.28638817,-99.14038583,0.244628906,-0.036865234,0.83203125,16:18.9,00:09.7
84,84,19.28638817,-99.14038583,0.147216797,0.056152344,0.945800781,16:18.9,00:09.7
85,85,19.28638817,-99.14038583,0.10546875,0.052978516,0.950439453,16:18.9,00:09.7
86,86,19.28638817,-99.14038583,0.056152344,0.031494141,0.860107422,16:18.9,00:09.7
87,87,19.28638817,-99.14038583,0.024658203,0.08984375,0.842773438,16:18.9,00:09.8
88,88,19.28631217,-99.14039,0.190673828,0.1640625,0.933349609,16:19.2,00:10.0
89,89,19.28631217,-99.14039,0.059326172,0.067626953,0.927001953,16:19.3,00:10.1
90,90,19.28631217,-99.14039,0.068359375,0.047119141,0.925537109,16:19.4,00:10.2
91,91,19.28631217,-99.14039,0.110351563,0.068603516,0.971435547,16:19.4,00:10.2
92,92,19.28631217,-99.14039,0.123291016,0.096923828,0.807617188,16:19.5,00:10.3
93,93,19.28631217,-99.14039,0.034912109,0.053710938,0.921386719,16:19.6,00:10.4
94,94,19.28631217,-99.14039,0.097167969,0.190917969,0.876464844,16:19.6,00:10.4
95,95,19.28631217,-99.14039,0.147705078,-0.007568359,0.971191406,16:19.7,00:10.5
96,96,19.28631217,-99.14039,0.157958984,0.129638672,0.889160156,16:19.8,00:10.6
97,97,19.28623517,-99.14039017,0.127441406,0.084716797,0.957519531,16:20.2,00:11.0
98,98,19.28623517,-99.14039017,0.087646484,0.080566406,0.841308594,16:20.3,00:11.1
99,99,19.28623517,-99.14039017,0.142089844,0.085449219,0.928466797,16:20.4,00:11.2
100,100,19.28623517,-99.14039017,0.178222656,0.141601563,0.879882813,16:20.4,00:11.2
101,101,19.28623517,-99.14039017,0.187988281,0.098632813,0.852050781,16:21.6,00:12.4
102,102,19.28623517,-99.14039017,0.027587891,0.177246094,1.058837891,16:21.6,00:12.4
103,103,19.28623517,-99.14039017,0.048339844,0.103515625,0.923339844,16:21.7,00:12.5
104,104,19.28623517,-99.14039017,0.067138672,0.007568359,0.842773438,16:21.7,00:12.5
105,105,19.28623517,-99.14039017,0.100341797,0.001708984,1.019775391,16:21.7,00:12.5
106,106,19.286159,-99.14039233,0.069824219,0.112792969,1.002685547,16:21.7,00:12.5
107,107,19.286159,-99.14039233,0.163330078,0.028076172,0.887939453,16:21.7,00:12.5
108,108,19.286159,-99.14039233,0.151367188,0.079589844,0.942382813,16:21.7,00:12.5
109,109,19.286159,-99.14039233,0.137939453,0.141113281,0.823242188,16:21.8,00:12.6
110,110,19.286159,-99.14039233,0.095703125,0.142578125,0.961669922,16:21.8,00:12.6
111,111,19.286159,-99.14039233,0.102050781,0.0703125,0.859375,16:21.8,00:12.6
112,112,19.286159,-99.14039233,0.116455078,0.052734375,0.756347656,16:21.8,00:12.6
113,113,19.286159,-99.14039233,0.108886719,0.071533203,0.923095703,16:21.8,00:12.6
114,114,19.286159,-99.14039233,0.11328125,0.067871094,0.828613281,16:21.8,00:12.6
115,115,19.28608517,-99.14039867,0.101074219,0.107666016,0.894287109,16:22.2,00:13.0
116,116,19.28608517,-99.14039867,0.065673828,0.080078125,0.901367188,16:22.3,00:13.1
117,117,19.28608517,-99.14039867,0.062988281,0.064941406,1.000732422,16:22.4,00:13.2
118,118,19.28608517,-99.14039867,0.200683594,0.05859375,0.914550781,16:22.4,00:13.2
119,119,19.28608517,-99.14039867,0.029541016,0.132080078,0.948486328,16:22.5,00:13.3
120,120,19.28608517,-99.14039867,0.515625,-0.078125,0.680419922,16:22.6,00:13.4
121,121,19.28608517,-99.14039867,0.178710938,0.178955078,1.0390625,16:22.6,00:13.4
122,122,19.28608517,-99.14039867,-0.44140625,0.310546875,1.041992188,16:22.7,00:13.5
123,123,19.28608517,-99.14039867,-0.090576172,-0.052734375,1.043212891,16:22.8,00:13.6
124,124,19.28601883,-99.14040683,0.014404297,0.100585938,0.962646484,16:23.2,00:14.0
125,125,19.28601883,-99.14040683,0.107421875,0.109863281,0.853515625,16:23.3,00:14.1
126,126,19.28601883,-99.14040683,0.137695313,0.070556641,0.860351563,16:24.5,00:15.3
127,127,19.28601883,-99.14040683,0.183105469,0.087646484,0.906982422,16:24.6,00:15.4
128,128,19.28601883,-99.14040683,0.183837891,0.047363281,0.954589844,16:24.6,00:15.4
129,129,19.28601883,-99.14040683,0.143798828,0.045166016,1.020507813,16:24.6,00:15.4
130,130,19.28601883,-99.14040683,0.171386719,0.041503906,0.871826172,16:24.6,00:15.4
131,131,19.28601883,-99.14040683,0.203857422,0.014648438,0.822509766,16:24.6,00:15.4
132,132,19.28601883,-99.14040683,0.143554688,0.001708984,0.947509766,16:24.7,00:15.5
133,133,19.28594617,-99.1404175,0.115478516,0.072753906,0.923339844,16:24.7,00:15.5
134,134,19.28594617,-99.1404175,0.151855469,0.012207031,0.91015625,16:24.7,00:15.5
135,135,19.28594617,-99.1404175,0.133056641,0.063964844,0.97265625,16:24.7,00:15.5
136,136,19.28594617,-99.1404175,0.140380859,0.113769531,0.983154297,16:24.7,00:15.5
137,137,19.28594617,-99.1404175,0.091552734,0.113525391,1.039306641,16:24.7,00:15.5
138,138,19.28594617,-99.1404175,0.087402344,0.092529297,0.850585938,16:24.8,00:15.6
139,139,19.28594617,-99.1404175,0.145263672,0.032470703,0.923828125,16:24.8,00:15.6
140,140,19.28594617,-99.1404175,0.116699219,0.073486328,0.850341797,16:24.8,00:15.6
141,141,19.28594617,-99.1404175,0.123291016,0.076416016,0.934814453,16:24.8,00:15.6
142,142,19.28586767,-99.14042517,0.051025391,0.00390625,0.875976563,16:25.2,00:16.0
143,143,19.28586767,-99.14042517,0.052246094,0.063232422,0.882080078,16:25.3,00:16.1
144,144,19.28586767,-99.14042517,0.104003906,0.128662109,0.843505859,16:25.3,00:16.1
145,145,19.28586767,-99.14042517,0.078125,0.100097656,0.906982422,16:25.4,00:16.2
146,146,19.28586767,-99.14042517,0.152587891,0.045654297,0.916748047,16:25.5,00:16.3
147,147,19.28586767,-99.14042517,0.063720703,0.043457031,0.951416016,16:25.6,00:16.4
148,148,19.28586767,-99.14042517,0.112060547,0.076416016,0.870361328,16:25.6,00:16.4
149,149,19.28586767,-99.14042517,0.133300781,0.047607422,0.861816406,16:25.7,00:16.5
150,150,19.28586767,-99.14042517,0.174072266,0.060058594,0.934326172,16:25.7,00:16.5
151,151,19.28578767,-99.14043,0.192871094,0.027587891,0.786621094,16:27.5,00:18.3
152,152,19.28578767,-99.14043,0.196044922,0.103515625,0.866699219,16:27.5,00:18.3
153,153,19.28578767,-99.14043,0.100341797,0.037841797,0.931640625,16:27.6,00:18.4
154,154,19.28578767,-99.14043,0.050292969,0.071533203,0.974121094,16:27.6,00:18.4
155,155,19.28578767,-99.14043,0.040039063,0.085693359,0.856689453,16:27.6,00:18.4
156,156,19.28578767,-99.14043,0.036621094,0.015625,0.984619141,16:27.6,00:18.4
157,157,19.28578767,-99.14043,0.124755859,0.018066406,0.946777344,16:27.6,00:18.4
158,158,19.28578767,-99.14043,0.112792969,-0.000244141,0.953125,16:27.6,00:18.4
159,159,19.28578767,-99.14043,0.1015625,0.010498047,0.970703125,16:27.7,00:18.5
160,160,19.28570783,-99.1404335,0.045166016,0.217285156,0.889404297,16:27.7,00:18.5
161,161,19.28570783,-99.1404335,0.120849609,0.145507813,0.859863281,16:27.7,00:18.5
162,162,19.28570783,-99.1404335,0.263427734,0.120117188,0.889160156,16:27.7,00:18.5
163,163,19.28570783,-99.1404335,0.155029297,0.103271484,0.931884766,16:27.8,00:18.6
164,164,19.28570783,-99.1404335,0.109863281,0.115234375,0.909423828,16:27.8,00:18.6
165,165,19.28570783,-99.1404335,0.111083984,0.129638672,0.919921875,16:27.8,00:18.6
166,166,19.28570783,-99.1404335,0.104736328,0.024169922,0.900634766,16:27.8,00:18.6
167,167,19.28570783,-99.1404335,0.151855469,0.067871094,0.960693359,16:27.8,00:18.6
168,168,19.28570783,-99.1404335,0.089599609,0.142822266,0.929443359,16:27.9,00:18.7
169,169,19.28562817,-99.140441,0.109619141,0.094482422,0.919433594,16:28.2,00:19.0
170,170,19.28562817,-99.140441,0.145751953,0.038574219,0.861572266,16:28.3,00:19.1
171,171,19.28562817,-99.140441,0.140625,0.044921875,0.805664063,16:28.4,00:19.2
172,172,19.28562817,-99.140441,0.147949219,0.218505859,0.968261719,16:28.4,00:19.2
173,173,19.28562817,-99.140441,0.188720703,0.079833984,0.867919922,16:28.5,00:19.3
174,174,19.28562817,-99.140441,0.128662109,0.045166016,0.921142578,16:28.6,00:19.4
175,175,19.28562817,-99.140441,0.186279297,0.079833984,0.844970703,16:28.6,00:19.4
176,176,19.28562817,-99.140441,0.030517578,0.080078125,0.859619141,16:30.2,00:21.0
177,177,19.28562817,-99.140441,0.057617188,0.099853516,0.842529297,16:30.3,00:21.1
178,178,19.28554717,-99.14044817,0.031738281,0.063964844,0.923828125,16:30.3,00:21.1
179,179,19.28554717,-99.14044817,0.027832031,0.087646484,0.843261719,16:30.3,00:21.1
180,180,19.28554717,-99.14044817,0.068603516,0.100585938,0.844482422,16:30.3,00:21.1
181,181,19.28554717,-99.14044817,0.069091797,0.080322266,0.837158203,16:30.3,00:21.1
182,182,19.28554717,-99.14044817,0.069824219,0.148925781,0.920898438,16:30.3,00:21.1
183,183,19.28554717,-99.14044817,0.051757813,0.113769531,0.926025391,16:30.4,00:21.2
184,184,19.28554717,-99.14044817,0.064941406,0.077392578,0.944335938,16:30.4,00:21.2
185,185,19.28554717,-99.14044817,0.109375,0.006347656,0.883300781,16:30.4,00:21.2
186,186,19.28554717,-99.14044817,0.138427734,0.052490234,0.888183594,16:30.4,00:21.2
187,187,19.28546667,-99.140456,0.079833984,0.06640625,0.872558594,16:30.4,00:21.2
188,188,19.28546667,-99.140456,0.028564453,0.07421875,0.930175781,16:30.5,00:21.3
189,189,19.28546667,-99.140456,0.050048828,0.034667969,0.972900391,16:30.5,00:21.3
190,190,19.28546667,-99.140456,0.093261719,-0.016845703,0.778320313,16:30.5,00:21.3
191,191,19.28546667,-99.140456,0.074707031,0.109375,0.887451172,16:30.5,00:21.3
192,192,19.28546667,-99.140456,0.080566406,0.095214844,0.874023438,16:30.6,00:21.4
193,193,19.28546667,-99.140456,0.157714844,0.149414063,0.967285156,16:30.6,00:21.4
194,194,19.28546667,-99.140456,0.085693359,0.100341797,0.858154297,16:30.7,00:21.5
195,195,19.28546667,-99.140456,0.125244141,0.015869141,0.900634766,16:30.8,00:21.6
196,196,19.28538733,-99.140468,0.083740234,0.105957031,0.799072266,16:31.2,00:22.0
197,197,19.28538733,-99.140468,0.173095703,0.181884766,0.913818359,16:31.3,00:22.1
198,198,19.28538733,-99.140468,0.080078125,0.059814453,0.932617188,16:31.4,00:22.2
199,199,19.28538733,-99.140468,0.175048828,-0.10546875,0.960449219,16:31.4,00:22.2
200,200,19.28538733,-99.140468,-0.026611328,0.004638672,0.895507813,16:31.5,00:22.3
201,201,19.28538733,-99.140468,0.170410156,0.010986328,0.829833984,16:32.9,00:23.7
202,202,19.28538733,-99.140468,0.155273438,0.050048828,0.992919922,16:32.9,00:23.7
203,203,19.28538733,-99.140468,0.166015625,0.064453125,0.986816406,16:32.9,00:23.7
204,204,19.28538733,-99.140468,0.125,0.139892578,0.953857422,16:32.9,00:23.7
205,205,19.28530533,-99.14048283,0.084228516,0.108886719,0.979980469,16:33.0,00:23.8
206,206,19.28530533,-99.14048283,0.090332031,0.119384766,0.890136719,16:33.0,00:23.8
207,207,19.28530533,-99.14048283,0.126464844,0.109619141,0.959960938,16:33.0,00:23.8
208,208,19.28530533,-99.14048283,0.079833984,0.146240234,0.864257813,16:33.0,00:23.8
209,209,19.28530533,-99.14048283,0.089111328,0.116943359,0.997314453,16:33.0,00:23.8
210,210,19.28530533,-99.14048283,0.092773438,0.06640625,0.883300781,16:33.1,00:23.9
211,211,19.28530533,-99.14048283,0.118408203,0.071777344,0.887695313,16:33.1,00:23.9
212,212,19.28530533,-99.14048283,0.001220703,0.110107422,0.925048828,16:33.1,00:23.9
213,213,19.28530533,-99.14048283,0.056884766,0.092285156,0.935058594,16:33.1,00:23.9
214,214,19.28522183,-99.14049783,0.166259766,0.004394531,0.918701172,16:33.2,00:24.0
215,215,19.28522183,-99.14049783,0.172851563,0.074951172,0.876464844,16:33.3,00:24.1
216,216,19.28522183,-99.14049783,0.053710938,0.108398438,0.919189453,16:33.4,00:24.2
217,217,19.28522183,-99.14049783,0.075439453,0.122558594,0.866455078,16:33.4,00:24.2
218,218,19.28522183,-99.14049783,0.206054688,0.046386719,0.877441406,16:33.5,00:24.3
219,219,19.28522183,-99.14049783,0.128173828,0.070800781,0.850341797,16:33.6,00:24.4
220,220,19.28522183,-99.14049783,0.115966797,0.122802734,0.895507813,16:33.6,00:24.4
221,221,19.28522183,-99.14049783,0.117675781,0.108398438,0.972900391,16:33.7,00:24.5
222,222,19.28522183,-99.14049783,0.067626953,0.047607422,0.979736328,16:33.7,00:24.6
223,223,19.285138,-99.14050883,0.109863281,0.031738281,0.907958984,16:34.2,00:25.0
224,224,19.285138,-99.14050883,0.062255859,0.071289063,0.885009766,16:34.3,00:25.1
225,225,19.285138,-99.14050883,0.136474609,0.168457031,0.892578125,16:34.3,00:25.1
226,226,19.285138,-99.14050883,-1.112548828,0.639892578,1.234619141,16:36.0,00:26.8
227,227,19.285138,-99.14050883,-0.337158203,0.134033203,1.043701172,16:36.1,00:26.9
228,228,19.285138,-99.14050883,0.045654297,-0.079101563,0.991943359,16:36.1,00:26.9
229,229,19.285138,-99.14050883,-0.051513672,0.382324219,1.013916016,16:36.1,00:26.9
230,230,19.285138,-99.14050883,0.055175781,0.573486328,0.965332031,16:36.1,00:26.9
231,231,19.285138,-99.14050883,0.239257813,0.159912109,0.961181641,16:36.1,00:26.9
232,232,19.28505367,-99.14051783,0.255615234,-0.116455078,1.074462891,16:36.2,00:27.0
233,233,19.28505367,-99.14051783,0.352539063,0.042236328,0.867675781,16:36.2,00:27.0
234,234,19.28505367,-99.14051783,0.448974609,0.356689453,0.729736328,16:36.2,00:27.0
235,235,19.28505367,-99.14051783,0.539794922,0.594970703,0.5625,16:36.2,00:27.0
236,236,19.28505367,-99.14051783,0.572998047,0.033447266,0.534667969,16:36.2,00:27.0
237,237,19.28505367,-99.14051783,0.086669922,-0.010742188,0.836669922,16:36.2,00:27.0
238,238,19.28505367,-99.14051783,0.155273438,0.035400391,0.991699219,16:36.3,00:27.1
239,239,19.28505367,-99.14051783,0.243896484,-0.046630859,0.955078125,16:36.3,00:27.1
240,240,19.28505367,-99.14051783,0.171386719,-0.138916016,1.115478516,16:36.3,00:27.1
241,241,19.28496767,-99.14052917,-0.342285156,-0.201660156,1.261474609,16:36.3,00:27.1
242,242,19.28496767,-99.14052917,-0.174804688,-0.669921875,1.336181641,16:36.3,00:27.1
243,243,19.28496767,-99.14052917,0.66015625,0.205810547,0.644287109,16:36.4,00:27.2
244,244,19.28496767,-99.14052917,0.399658203,0.09375,1.00390625,16:36.4,00:27.2
245,245,19.28496767,-99.14052917,0.134033203,0.212890625,0.817138672,16:36.5,00:27.3
246,246,19.28496767,-99.14052917,0.212646484,0.059570313,0.821289063,16:36.6,00:27.4
247,247,19.28496767,-99.14052917,0.125244141,-0.029296875,0.893066406,16:36.6,00:27.4
248,248,19.28496767,-99.14052917,0.152832031,-0.050048828,0.927490234,16:36.7,00:27.5
249,249,19.28496767,-99.14052917,-0.116455078,0.078613281,0.960693359,16:36.7,00:27.6
250,250,19.28488233,-99.14054583,0.020507813,0.000244141,0.883300781,16:37.2,00:28.0
