countOBU,countRSU,latitude,longitude,Ax,Ay,Az,datetime,timeFromBeginning
1,1,0,0,0.121826172,0.013916016,0.911132813,28:43.8,00:00.3
2,2,0,0,0.118164063,0.036865234,0.912353516,28:43.8,00:00.3
3,3,0,0,0.130371094,0.027587891,0.848876953,28:43.9,00:00.4
4,4,0,0,0.124267578,-0.017089844,0.900146484,28:43.9,00:00.5
5,5,0,0,0.068847656,-0.032470703,0.972900391,28:44.0,00:00.5
6,6,0,0,0.122314453,-0.138916016,0.963378906,28:44.1,00:00.6
7,7,0,0,0.045410156,-0.087890625,0.996337891,28:44.2,00:00.7
8,8,0,0,0.053710938,-0.031982422,0.918945313,28:44.2,00:00.7
9,9,0,0,0.078125,-0.030761719,0.872314453,28:44.3,00:00.8
10,10,19.28516683,-99.14057233,0.067138672,-0.1171875,0.958007813,28:44.8,00:01.3
11,11,19.28516683,-99.14057233,0.072021484,-0.075439453,0.959716797,28:44.8,00:01.3
12,12,19.28516683,-99.14057233,0.107910156,-0.079345703,0.908447266,28:44.9,00:01.4
13,13,19.28516683,-99.14057233,0.099853516,0.016113281,0.912841797,28:44.9,00:01.5
14,14,19.28516683,-99.14057233,0.135986328,-0.023925781,0.921630859,28:45.0,00:01.5
15,15,19.28516683,-99.14057233,0.118652344,-0.023193359,0.864990234,28:45.1,00:01.6
16,16,19.28516683,-99.14057233,0.143066406,-0.087158203,0.944824219,28:45.2,00:01.7
17,17,19.28516683,-99.14057233,0.093261719,-0.031005859,0.941650391,28:45.2,00:01.7
18,18,19.28516683,-99.14057233,0.083007813,-0.050537109,0.980957031,28:45.3,00:01.8
19,19,19.28513433,-99.14057967,0.135253906,0.106445313,0.891601563,28:45.8,00:02.3
20,20,19.28513433,-99.14057967,0.123779297,0.048339844,0.880126953,28:45.8,00:02.3
21,21,19.28513433,-99.14057967,0.123779297,0.075195313,0.918945313,28:45.9,00:02.4
22,22,19.28513433,-99.14057967,0.095458984,0.103027344,0.956787109,28:45.9,00:02.5
23,23,19.28513433,-99.14057967,0.091064453,0.140625,0.940185547,28:46.0,00:02.5
24,24,19.28513433,-99.14057967,0.061523438,0.063232422,0.937011719,28:46.1,00:02.6
25,25,19.28513433,-99.14057967,0.055175781,0.088623047,0.894287109,28:46.2,00:02.7
26,26,19.28513433,-99.14057967,0.137695313,-0.005615234,0.898681641,28:47.4,00:03.9
27,27,19.28513433,-99.14057967,0.106933594,0.046386719,0.873291016,28:47.4,00:03.9
28,28,19.28510083,-99.14057733,0.128173828,0.05859375,0.9453125,28:47.4,00:03.9
29,29,19.28510083,-99.14057733,0.131835938,0.01953125,0.957763672,28:47.4,00:03.9
30,30,19.28510083,-99.14057733,0.135986328,0.024902344,0.946044922,28:47.4,00:04.0
31,31,19.28510083,-99.14057733,0.150634766,-0.028808594,0.932617188,28:47.4,00:04.0
32,32,19.28510083,-99.14057733,0.076171875,-0.029541016,0.863769531,28:47.5,00:04.0
33,33,19.28510083,-99.14057733,0.097900391,0.005126953,0.927246094,28:47.5,00:04.0
34,34,19.28510083,-99.14057733,0.072509766,0.027099609,0.945068359,28:47.5,00:04.0
35,35,19.28510083,-99.14057733,0.036621094,0.046875,0.967773438,28:47.5,00:04.0
36,36,19.28510083,-99.14057733,0.049560547,0.008789063,1.008300781,28:47.5,00:04.0
37,37,19.28505933,-99.14057933,0.147216797,0.002441406,0.923339844,28:47.8,00:04.3
38,38,19.28505933,-99.14057933,0.140869141,0.002441406,0.942626953,28:47.8,00:04.3
39,39,19.28505933,-99.14057933,0.145263672,0.064697266,0.932617188,28:47.9,00:04.4
40,40,19.28505933,-99.14057933,0.158447266,0.014892578,0.868896484,28:47.9,00:04.5
41,41,19.28505933,-99.14057933,0.126464844,0.030761719,0.889648438,28:48.0,00:04.5
42,42,19.28505933,-99.14057933,0.099609375,0.053710938,0.922363281,28:48.1,00:04.6
43,43,19.28505933,-99.14057933,0.087890625,-0.003662109,0.995361328,28:48.2,00:04.7
44,44,19.28505933,-99.14057933,0.147460938,-0.015625,0.864746094,28:48.2,00:04.7
45,45,19.28505933,-99.14057933,0.127929688,0.024658203,0.918945313,28:48.3,00:04.8
46,46,19.28502683,-99.14059133,0.196044922,0.045654297,0.877441406,28:48.8,00:05.3
47,47,19.28502683,-99.14059133,0.079101563,0.186767578,0.87109375,28:48.8,00:05.3
48,48,19.28502683,-99.14059133,0.014648438,0.056152344,1.040771484,28:48.9,00:05.4
49,49,19.28502683,-99.14059133,0.234375,0.05078125,0.9375,28:48.9,00:05.5
50,50,19.28502683,-99.14059133,0.020019531,0.007568359,0.90234375,28:49.0,00:05.5
51,51,19.28502683,-99.14059133,0.104736328,0.055419922,0.9453125,28:50.2,00:06.7
52,52,19.28502683,-99.14059133,0.057128906,0.050048828,0.930908203,28:50.2,00:06.8
53,53,19.28502683,-99.14059133,0.017333984,0.076171875,0.865234375,28:50.3,00:06.8
54,54,19.28502683,-99.14059133,-0.014404297,0.173583984,0.951416016,28:50.3,00:06.8
55,55,19.2849885,-99.14059383,0.049072266,0.155517578,0.934082031,28:50.3,00:06.8
56,56,19.2849885,-99.14059383,0.060302734,0.152099609,0.860351563,28:50.3,00:06.8
57,57,19.2849885,-99.14059383,0.187988281,0.078613281,0.805908203,28:50.3,00:06.8
58,58,19.2849885,-99.14059383,0.206787109,0.044921875,0.843994141,28:50.3,00:06.9
59,59,19.2849885,-99.14059383,0.160400391,0.150878906,0.865966797,28:50.4,00:06.9
60,60,19.2849885,-99.14059383,0.206787109,0.154785156,0.843994141,28:50.4,00:06.9
61,61,19.2849885,-99.14059383,0.199707031,0.121826172,0.827636719,28:50.4,00:06.9
62,62,19.2849885,-99.14059383,0.065673828,0.060546875,1.027587891,28:50.4,00:07.0
63,63,19.2849885,-99.14059383,0.037597656,0.060546875,0.940673828,28:50.5,00:07.0
64,64,19.28494283,-99.140601,0.178710938,0.127197266,0.979736328,28:50.8,00:07.3
65,65,19.28494283,-99.140601,0.100097656,0.077392578,0.895263672,28:50.8,00:07.3
66,66,19.28494283,-99.140601,0.125732422,0.082275391,0.893066406,28:50.9,00:07.4
67,67,19.28494283,-99.140601,0.123046875,0.078125,1.008789063,28:50.9,00:07.5
68,68,19.28494283,-99.140601,0.069580078,0.064697266,0.862304688,28:51.0,00:07.5
69,69,19.28494283,-99.140601,0.039306641,0.067382813,0.870605469,28:51.1,00:07.6
70,70,19.28494283,-99.140601,0.016601563,0.112060547,0.96875,28:51.2,00:07.7
71,71,19.28494283,-99.140601,0.096435547,0.101806641,0.931152344,28:51.2,00:07.8
72,72,19.28494283,-99.140601,0.146728516,0.157470703,0.874023438,28:51.3,00:07.8
73,73,19.28489517,-99.1406005,0.1640625,0.063232422,0.883544922,28:51.8,00:08.3
74,74,19.28489517,-99.1406005,0.120361328,0.021728516,0.914794922,28:51.8,00:08.3
75,75,19.28489517,-99.1406005,0.133789063,0.115722656,0.905761719,28:51.9,00:08.4
76,76,19.28489517,-99.1406005,0.153320313,0.078613281,0.92578125,28:53.1,00:09.6
77,77,19.28489517,-99.1406005,0.145751953,0.053222656,0.864990234,28:53.1,00:09.6
78,78,19.28489517,-99.1406005,0.125732422,0.020996094,0.873046875,28:53.1,00:09.7
79,79,19.28489517,-99.1406005,0.134277344,0.085205078,0.889892578,28:53.1,00:09.7
80,80,19.28489517,-99.1406005,0.126708984,0.094482422,0.908691406,28:53.2,00:09.7
81,81,19.28489517,-99.1406005,0.171386719,0.115966797,0.926757813,28:53.2,00:09.7
82,82,19.28484917,-99.14061133,0.130859375,0.101318359,0.929199219,28:53.2,00:09.7
83,83,19.28484917,-99.14061133,0.097167969,0.056152344,0.940185547,28:53.2,00:09.7
84,84,19.28484917,-99.14061133,0.11328125,0.079101563,0.908447266,28:53.3,00:09.8
85,85,19.28484917,-99.14061133,0.137207031,0.085693359,0.920166016,28:53.3,00:09.8
86,86,19.28484917,-99.14061133,0.084472656,0.083984375,0.956542969,28:53.3,00:09.8
87,87,19.28484917,-99.14061133,0.048828125,0.109130859,0.928955078,28:53.3,00:09.9
88,88,19.28484917,-99.14061133,0.078369141,0.065917969,0.822998047,28:53.3,00:09.9
89,89,19.28484917,-99.14061133,0.098632813,0.072021484,0.930175781,28:53.4,00:09.9
90,90,19.28484917,-99.14061133,0.11328125,0.051269531,0.86328125,28:53.4,00:09.9
91,91,19.284802,-99.14062167,0.085449219,0.110595703,0.907226563,28:53.8,00:10.3
92,92,19.284802,-99.14062167,0.167480469,0.107666016,0.802246094,28:53.8,00:10.3
93,93,19.284802,-99.14062167,0.128417969,0.092285156,0.843261719,28:53.9,00:10.4
94,94,19.284802,-99.14062167,0.050292969,0.027099609,0.910400391,28:53.9,00:10.5
95,95,19.284802,-99.14062167,0.128417969,0.081298828,0.867431641,28:54.0,00:10.5
96,96,19.284802,-99.14062167,0.114746094,0.086669922,0.903564453,28:54.1,00:10.6
97,97,19.284802,-99.14062167,0.087402344,0.077636719,0.899658203,28:54.2,00:10.7
98,98,19.284802,-99.14062167,0.14453125,0.018798828,0.878417969,28:54.2,00:10.7
99,99,19.284802,-99.14062167,0.125976563,0.107177734,0.884033203,28:54.3,00:10.8
100,100,19.28475233,-99.14062983,0.13671875,0.108154297,0.936523438,28:54.8,00:11.3
101,101,19.28475233,-99.14062983,0.077392578,0.092529297,0.9296875,28:56.5,00:13.0
102,102,19.28475233,-99.14062983,0.044433594,0.119384766,0.922607422,28:56.5,00:13.1
103,103,19.28475233,-99.14062983,0.022216797,0.179443359,0.913085938,28:56.6,00:13.1
104,104,19.28475233,-99.14062983,0.001953125,0.110839844,1.012451172,28:56.6,00:13.1
105,105,19.28475233,-99.14062983,-0.033447266,0.0625,0.984863281,28:56.6,00:13.2
106,106,19.28475233,-99.14062983,0.007080078,0.098876953,1.014648438,28:56.6,00:13.2
107,107,19.28475233,-99.14062983,0.043701172,0.128417969,1.008544922,28:56.7,00:13.2
108,108,19.28475233,-99.14062983,0.085449219,0.124755859,1.006103516,28:56.7,00:13.2
109,109,19.28470083,-99.140639,0.110107422,0.140380859,0.916748047,28:56.7,00:13.2
110,110,19.28470083,-99.140639,0.123535156,0.147705078,0.819580078,28:56.7,00:13.3
111,111,19.28470083,-99.140639,0.111572266,0.195800781,0.876464844,28:56.8,00:13.3
112,112,19.28470083,-99.140639,0.155517578,0.19921875,0.839111328,28:56.8,00:13.3
113,113,19.28470083,-99.140639,0.234863281,0.180419922,0.80078125,28:56.8,00:13.3
114,114,19.28470083,-99.140639,0.226806641,0.232177734,0.815185547,28:56.9,00:13.4
115,115,19.28470083,-99.140639,0.231445313,0.187988281,0.834472656,28:56.9,00:13.4
116,116,19.28470083,-99.140639,0.206298828,0.217041016,0.853271484,28:56.9,00:13.4
117,117,19.28470083,-99.140639,0.154296875,0.145019531,0.86328125,28:56.9,00:13.4
118,118,19.28465117,-99.1406435,0.093994141,0.156494141,0.903808594,28:56.9,00:13.5
119,119,19.28465117,-99.1406435,0.10546875,0.170898438,0.896240234,28:57.0,00:13.5
120,120,19.28465117,-99.1406435,0.1328125,0.090332031,0.907714844,28:57.0,00:13.6
121,121,19.28465117,-99.1406435,0.105224609,0.097900391,0.920654297,28:57.1,00:13.6
122,122,19.28465117,-99.1406435,0.088134766,0.100341797,0.894042969,28:57.1,00:13.6
123,123,19.28465117,-99.1406435,-0.002197266,0.111816406,0.975585938,28:57.1,00:13.6
124,124,19.28465117,-99.1406435,0.064941406,0.070068359,0.902587891,28:57.2,00:13.7
125,125,19.28465117,-99.1406435,0.138183594,0.139404297,0.824462891,28:57.2,00:13.7
126,126,19.28465117,-99.1406435,0.076416016,0.053955078,0.947509766,28:58.7,00:15.3
127,127,19.28461233,-99.14063567,0.081298828,0.049804688,0.873535156,28:58.8,00:15.3
128,128,19.28461233,-99.14063567,0.110839844,0.100341797,0.930419922,28:58.8,00:15.3
129,129,19.28461233,-99.14063567,0.108886719,0.090087891,0.961914063,28:58.8,00:15.3
130,130,19.28461233,-99.14063567,0.145751953,0.107177734,0.944091797,28:58.8,00:15.3
131,131,19.28461233,-99.14063567,0.183349609,0.045654297,0.838867188,28:58.8,00:15.4
132,132,19.28461233,-99.14063567,0.149902344,0.116455078,0.952880859,28:58.9,00:15.4
133,133,19.28461233,-99.14063567,0.133056641,0.107177734,0.921142578,28:58.9,00:15.4
134,134,19.28461233,-99.14063567,0.141357422,0.126953125,0.960693359,28:58.9,00:15.5
135,135,19.28461233,-99.14063567,0.193603516,0.104980469,0.933105469,28:58.9,00:15.5
136,136,19.284563,-99.14062983,0.238037109,0.093261719,0.913818359,28:59.0,00:15.5
137,137,19.284563,-99.14062983,0.228271484,0.107666016,0.953125,28:59.0,00:15.5
138,138,19.284563,-99.14062983,0.169921875,0.085693359,0.932617188,28:59.0,00:15.5
139,139,19.284563,-99.14062983,0.091796875,0.078125,0.868408203,28:59.0,00:15.5
140,140,19.284563,-99.14062983,0.117431641,0.108886719,0.87890625,28:59.0,00:15.6
141,141,19.284563,-99.14062983,0.03515625,0.106201172,0.864501953,28:59.1,00:15.6
142,142,19.284563,-99.14062983,0.043945313,0.095214844,0.911865234,28:59.2,00:15.7
143,143,19.284563,-99.14062983,0.064941406,0.03125,0.880126953,28:59.2,00:15.7
144,144,19.284563,-99.14062983,0.098632813,0.103759766,0.922363281,28:59.3,00:15.8
145,145,19.2845115,-99.1406305,0.145751953,0.142333984,0.920410156,28:59.8,00:16.3
146,146,19.2845115,-99.1406305,0.124023438,0.143554688,0.984619141,28:59.8,00:16.3
147,147,19.2845115,-99.1406305,0.124511719,0.114257813,0.972412109,28:59.9,00:16.4
148,148,19.2845115,-99.1406305,0.164550781,0.139648438,0.921630859,28:59.9,00:16.5
149,149,19.2845115,-99.1406305,0.08203125,0.083496094,0.895507813,29:00.0,00:16.5
150,150,19.2845115,-99.1406305,0.126953125,0.132324219,0.860839844,29:00.1,00:16.6
151,151,19.2845115,-99.1406305,-0.045166016,0.030273438,0.905273438,29:02.1,00:18.6
152,152,19.2845115,-99.1406305,0.036376953,-0.113037109,1.009033203,29:02.1,00:18.6
153,153,19.2845115,-99.1406305,0.101806641,-0.141113281,0.983398438,29:02.1,00:18.6
154,154,19.28446967,-99.14062683,0.088867188,0.040039063,1.02734375,29:02.1,00:18.7
155,155,19.28446967,-99.14062683,0.115478516,-0.044921875,1.049560547,29:02.1,00:18.7
156,156,19.28446967,-99.14062683,0.137451172,-0.051269531,1.057861328,29:02.2,00:18.7
157,157,19.28446967,-99.14062683,0.177001953,0.054931641,0.987304688,29:02.2,00:18.7
158,158,19.28446967,-99.14062683,0.204589844,-0.043945313,1.02734375,29:02.2,00:18.7
159,159,19.28446967,-99.14062683,0.1796875,0.098632813,0.938964844,29:02.2,00:18.8
160,160,19.28446967,-99.14062683,0.272705078,-0.005615234,0.790283203,29:02.3,00:18.8
161,161,19.28446967,-99.14062683,0.234863281,0.104003906,0.843994141,29:02.3,00:18.8
162,162,19.28446967,-99.14062683,0.219238281,0.180175781,0.843505859,29:02.3,00:18.8
163,163,19.28442833,-99.14063083,0.255371094,0.283935547,0.841064453,29:02.3,00:18.9
164,164,19.28442833,-99.14063083,0.256347656,0.289306641,0.803955078,29:02.4,00:18.9
165,165,19.28442833,-99.14063083,0.229003906,0.216308594,0.802246094,29:02.4,00:18.9
166,166,19.28442833,-99.14063083,0.187255859,0.308837891,0.822753906,29:02.4,00:18.9
167,167,19.28442833,-99.14063083,0.186035156,0.35546875,0.771972656,29:02.4,00:18.9
168,168,19.28442833,-99.14063083,0.116943359,0.368896484,0.860595703,29:02.4,00:19.0
169,169,19.28442833,-99.14063083,0.279052734,0.380371094,0.867431641,29:02.5,00:19.0
170,170,19.28442833,-99.14063083,0.299560547,0.438964844,0.860595703,29:02.5,00:19.0
171,171,19.28442833,-99.14063083,0.064208984,0.361328125,0.879638672,29:02.6,00:19.1
172,172,19.284382,-99.14063683,0.015380859,0.09765625,0.902832031,29:02.8,00:19.3
173,173,19.284382,-99.14063683,0.033691406,0.150634766,0.862548828,29:02.8,00:19.3
174,174,19.284382,-99.14063683,0.09765625,0.041015625,0.862060547,29:02.9,00:19.4
175,175,19.284382,-99.14063683,0.188232422,0.089355469,0.828857422,29:02.9,00:19.5
176,176,19.284382,-99.14063683,0.199707031,0.072265625,0.893310547,29:04.3,00:20.8
177,177,19.284382,-99.14063683,0.205810547,0.083007813,0.945068359,29:04.3,00:20.8
178,178,19.284382,-99.14063683,0.164550781,0.108154297,0.923339844,29:04.3,00:20.8
179,179,19.284382,-99.14063683,0.175048828,0.107666016,0.978271484,29:04.3,00:20.9
180,180,19.284382,-99.14063683,0.1640625,0.118408203,0.956542969,29:04.3,00:20.9
181,181,19.28433867,-99.14064117,0.151123047,0.117675781,0.929443359,29:04.4,00:20.9
182,182,19.28433867,-99.14064117,0.111328125,0.104492188,0.892822266,29:04.4,00:20.9
183,183,19.28433867,-99.14064117,0.097167969,0.125976563,0.868652344,29:04.4,00:20.9
184,184,19.28433867,-99.14064117,0.106933594,0.091064453,0.880615234,29:04.4,00:21.0
185,185,19.28433867,-99.14064117,0.161132813,0.126708984,0.953613281,29:04.5,00:21.0
186,186,19.28433867,-99.14064117,0.137695313,0.121826172,0.943115234,29:04.5,00:21.0
187,187,19.28433867,-99.14064117,0.110351563,0.110107422,0.938232422,29:04.5,00:21.1
188,188,19.28433867,-99.14064117,0.107666016,0.099609375,0.891357422,29:04.5,00:21.1
189,189,19.28433867,-99.14064117,0.073974609,0.101074219,0.903808594,29:04.6,00:21.1
190,190,19.284285,-99.14064283,0.116455078,0.089111328,0.950195313,29:04.8,00:21.3
191,191,19.284285,-99.14064283,0.107666016,0.133300781,0.985351563,29:04.8,00:21.3
192,192,19.284285,-99.14064283,0.151611328,0.165771484,0.934814453,29:04.9,00:21.4
193,193,19.284285,-99.14064283,0.176025391,0.062255859,0.873535156,29:04.9,00:21.5
194,194,19.284285,-99.14064283,0.140136719,0.096435547,0.837890625,29:05.0,00:21.5
195,195,19.284285,-99.14064283,0.118896484,0.137451172,0.9609375,29:05.1,00:21.6
196,196,19.284285,-99.14064283,0.151123047,0.129150391,0.930908203,29:05.2,00:21.7
197,197,19.284285,-99.14064283,0.109375,0.120849609,0.905517578,29:05.2,00:21.7
198,198,19.284285,-99.14064283,0.167236328,0.110107422,0.886962891,29:05.3,00:21.8
199,199,19.28424067,-99.14065033,0.123535156,0.150634766,0.949462891,29:05.8,00:22.3
200,200,19.28424067,-99.14065033,0.100097656,0.102783203,0.973388672,29:05.8,00:22.4
201,201,19.28424067,-99.14065033,0.120361328,0.239257813,0.888916016,29:07.6,00:24.1
202,202,19.28424067,-99.14065033,0.149658203,0.207519531,0.895019531,29:07.6,00:24.1
203,203,19.28424067,-99.14065033,0.138427734,0.199462891,0.864990234,29:07.6,00:24.2
204,204,19.28424067,-99.14065033,0.141845703,0.254638672,0.896484375,29:07.6,00:24.2
205,205,19.28424067,-99.14065033,0.16015625,0.25,0.891601563,29:07.7,00:24.2
206,206,19.28424067,-99.14065033,0.176269531,0.222900391,0.852783203,29:07.7,00:24.2
207,207,19.28424067,-99.14065033,0.119873047,0.266113281,0.921142578,29:07.7,00:24.2
208,208,19.2842005,-99.14065733,0.116943359,0.294189453,0.926025391,29:07.7,00:24.2
209,209,19.2842005,-99.14065733,0.142333984,0.255615234,0.863037109,29:07.7,00:24.3
210,210,19.2842005,-99.14065733,0.133544922,0.279052734,0.874511719,29:07.7,00:24.3
211,211,19.2842005,-99.14065733,0.138916016,0.281494141,0.884033203,29:07.8,00:24.3
212,212,19.2842005,-99.14065733,0.122070313,0.293457031,0.856689453,29:07.8,00:24.3
213,213,19.2842005,-99.14065733,0.141357422,0.324462891,0.874267578,29:07.8,00:24.3
214,214,19.2842005,-99.14065733,0.139160156,0.329345703,0.876953125,29:07.8,00:24.3
215,215,19.2842005,-99.14065733,0.131103516,0.348144531,0.904785156,29:07.8,00:24.4
216,216,19.2842005,-99.14065733,0.139404297,0.317138672,0.848632813,29:07.8,00:24.4
217,217,19.28416133,-99.14066333,0.132324219,0.339111328,0.896484375,29:07.9,00:24.4
218,218,19.28416133,-99.14066333,0.149902344,0.309326172,0.846679688,29:07.9,00:24.4
219,219,19.28416133,-99.14066333,0.086425781,0.311035156,0.870849609,29:07.9,00:24.4
220,220,19.28416133,-99.14066333,0.1171875,0.320556641,0.908447266,29:07.9,00:24.5
221,221,19.28416133,-99.14066333,0.147705078,0.294921875,0.900634766,29:08.0,00:24.6
222,222,19.28416133,-99.14066333,0.169433594,0.296875,0.857666016,29:08.1,00:24.6
223,223,19.28416133,-99.14066333,0.156494141,0.322265625,0.845458984,29:08.2,00:24.7
224,224,19.28416133,-99.14066333,0.127197266,0.338134766,0.856201172,29:08.2,00:24.8
225,225,19.28416133,-99.14066333,0.145019531,0.302978516,0.859375,29:08.3,00:24.8
