countOBU,countRSU,latitude,longitude,Ax,Ay,Az,datetime,timeFromBeginning
1,1,0,0,0.11328125,0.090332031,0.885253906,00:13.2,00:00.2
2,2,0,0,0.122314453,0.080810547,0.905761719,00:13.2,00:00.3
3,3,0,0,0.096679688,0.09765625,0.934082031,00:13.3,00:00.4
4,4,0,0,0.100830078,0.104736328,0.941162109,00:13.4,00:00.4
5,5,0,0,0.097900391,0.090576172,0.939208984,00:13.5,00:00.5
6,6,0,0,0.106201172,0.094238281,0.931152344,00:13.5,00:00.6
7,7,0,0,0.108886719,0.079833984,0.901123047,00:13.6,00:00.6
8,8,0,0,0.115966797,0.089111328,0.890869141,00:13.7,00:00.7
9,9,0,0,0.098632813,0.096679688,0.914794922,00:13.7,00:00.7
10,10,19.286739,-99.14032167,0.101318359,0.083251953,0.897949219,00:14.2,00:01.2
11,11,19.286739,-99.14032167,0.099365234,0.083984375,0.872314453,00:14.2,00:01.3
12,12,19.286739,-99.14032167,0.110351563,0.077148438,0.891113281,00:14.3,00:01.4
13,13,19.286739,-99.14032167,0.116210938,0.072265625,0.879882813,00:14.4,00:01.4
14,14,19.286739,-99.14032167,0.116455078,0.071533203,0.936279297,00:14.5,00:01.5
15,15,19.286739,-99.14032167,0.110107422,0.095214844,0.931152344,00:14.5,00:01.6
16,16,19.286739,-99.14032167,0.100341797,0.094482422,0.950927734,00:14.6,00:01.6
17,17,19.286739,-99.14032167,0.088867188,0.093994141,0.931396484,00:14.7,00:01.7
18,18,19.286739,-99.14032167,0.115478516,0.093017578,0.897460938,00:14.7,00:01.7
19,19,19.28673833,-99.14032233,0.104736328,0.102294922,0.948486328,00:15.2,00:02.2
20,20,19.28673833,-99.14032233,0.112304688,0.096679688,0.926025391,00:15.2,00:02.3
21,21,19.28673833,-99.14032233,0.095458984,0.1015625,0.937011719,00:15.3,00:02.3
22,22,19.28673833,-99.14032233,0.111083984,0.09765625,0.906005859,00:15.4,00:02.4
23,23,19.28673833,-99.14032233,0.105224609,0.103515625,0.930419922,00:15.5,00:02.5
24,24,19.28673833,-99.14032233,0.099365234,0.085449219,0.886962891,00:15.5,00:02.6
25,25,19.28673833,-99.14032233,0.104736328,0.099853516,0.874267578,00:15.6,00:02.6
26,26,19.28673833,-99.14032233,0.104248047,0.091796875,0.936767578,00:16.9,00:04.0
27,27,19.28673833,-99.14032233,0.113037109,0.080810547,0.884277344,00:16.9,00:04.0
28,28,19.28673867,-99.14032083,0.107910156,0.090332031,0.950683594,00:17.0,00:04.0
29,29,19.28673867,-99.14032083,0.097900391,0.104736328,0.932861328,00:17.0,00:04.0
30,30,19.28673867,-99.14032083,0.108154297,0.094238281,0.924072266,00:17.0,00:04.0
31,31,19.28673867,-99.14032083,0.107421875,0.080566406,0.940185547,00:17.0,00:04.0
32,32,19.28673867,-99.14032083,0.115966797,0.078857422,0.905517578,00:17.0,00:04.1
33,33,19.28673867,-99.14032083,0.105712891,0.104003906,0.899414063,00:17.0,00:04.1
34,34,19.28673867,-99.14032083,0.126708984,0.087402344,0.90234375,00:17.1,00:04.1
35,35,19.28673867,-99.14032083,0.107421875,0.107177734,0.881347656,00:17.1,00:04.1
36,36,19.28673867,-99.14032083,0.106445313,0.083740234,0.935791016,00:17.1,00:04.1
37,37,19.28673883,-99.14031883,0.119628906,0.087402344,0.882324219,00:17.2,00:04.2
38,38,19.28673883,-99.14031883,0.113769531,0.07421875,0.87890625,00:17.2,00:04.3
39,39,19.28673883,-99.14031883,0.114990234,0.065917969,0.891113281,00:17.3,00:04.4
40,40,19.28673883,-99.14031883,0.111816406,0.048583984,0.879394531,00:17.4,00:04.4
41,41,19.28673883,-99.14031883,0.102050781,0.082275391,0.901855469,00:17.5,00:04.5
42,42,19.28673883,-99.14031883,0.109130859,0.090332031,0.914550781,00:17.5,00:04.6
43,43,19.28673883,-99.14031883,0.096435547,0.080078125,0.934082031,00:17.6,00:04.6
44,44,19.28673883,-99.14031883,0.094238281,0.093505859,0.9296875,00:17.7,00:04.7
45,45,19.28673883,-99.14031883,0.121337891,0.067138672,0.932861328,00:17.7,00:04.7
46,46,19.2867385,-99.14031717,0.100585938,-0.022216797,0.916748047,00:18.2,00:05.2
47,47,19.2867385,-99.14031717,0.111572266,-0.03125,0.907958984,00:18.2,00:05.3
48,48,19.2867385,-99.14031717,0.115966797,-0.035644531,0.894775391,00:18.3,00:05.4
49,49,19.2867385,-99.14031717,0.133300781,-0.048095703,0.913574219,00:18.4,00:05.4
50,50,19.2867385,-99.14031717,0.120117188,-0.068847656,0.879882813,00:18.5,00:05.5
51,51,19.2867385,-99.14031717,0.124511719,-0.033447266,0.952636719,00:19.6,00:06.6
52,52,19.2867385,-99.14031717,0.126953125,-0.026611328,0.919677734,00:19.6,00:06.7
53,53,19.2867385,-99.14031717,0.109130859,-0.017822266,0.943847656,00:19.7,00:06.7
54,54,19.2867385,-99.14031717,0.112060547,-0.008300781,0.915527344,00:19.7,00:06.7
55,55,19.28673017,-99.140318,0.132568359,0.015136719,0.892822266,00:19.7,00:06.7
56,56,19.28673017,-99.140318,0.105712891,0.023193359,0.953369141,00:19.7,00:06.7
57,57,19.28673017,-99.140318,0.103759766,0.0078125,0.95703125,00:19.7,00:06.8
58,58,19.28673017,-99.140318,0.083740234,0.037841797,0.960449219,00:19.7,00:06.8
59,59,19.28673017,-99.140318,0.087158203,0.041503906,0.971191406,00:19.8,00:06.8
60,60,19.28673017,-99.140318,0.085693359,0.012695313,0.869873047,00:19.8,00:06.8
61,61,19.28673017,-99.140318,0.106445313,0.023193359,0.904541016,00:19.8,00:06.8
62,62,19.28673017,-99.140318,0.075683594,0.031738281,0.981445313,00:19.8,00:06.8
63,63,19.28673017,-99.140318,0.087890625,0.017089844,0.916015625,00:19.8,00:06.8
64,64,19.28671,-99.14031933,0.112060547,0.03125,0.939208984,00:20.2,00:07.2
65,65,19.28671,-99.14031933,0.098876953,0.073730469,0.937011719,00:20.3,00:07.3
66,66,19.28671,-99.14031933,0.093261719,0.065185547,0.918945313,00:20.3,00:07.4
67,67,19.28671,-99.14031933,0.078369141,0.015380859,0.91015625,00:20.4,00:07.4
68,68,19.28671,-99.14031933,0.089599609,-0.008544922,0.942138672,00:20.5,00:07.5
69,69,19.28671,-99.14031933,0.118652344,0.013671875,0.933837891,00:20.6,00:07.6
70,70,19.28671,-99.14031933,0.091308594,0.010498047,0.933349609,00:20.6,00:07.6
71,71,19.28671,-99.14031933,0.087402344,0.02734375,0.919189453,00:20.7,00:07.7
72,72,19.28671,-99.14031933,0.108154297,0.00390625,0.922363281,00:20.7,00:07.7
73,73,19.2866805,-99.14032483,0.081542969,0.154052734,0.874267578,00:21.2,00:08.2
74,74,19.2866805,-99.14032483,0.037597656,0.109619141,0.903564453,00:21.3,00:08.3
75,75,19.2866805,-99.14032483,0.145019531,0.116943359,0.920410156,00:21.3,00:08.4
76,76,19.2866805,-99.14032483,0.157714844,0.079345703,0.895996094,00:22.6,00:09.6
77,77,19.2866805,-99.14032483,0.147705078,0.138427734,0.922851563,00:22.6,00:09.7
78,78,19.2866805,-99.14032483,0.152099609,0.089111328,0.9453125,00:22.7,00:09.7
79,79,19.2866805,-99.14032483,0.152099609,0.099365234,0.898193359,00:22.7,00:09.7
80,80,19.2866805,-99.14032483,0.118896484,0.054443359,0.931884766,00:22.7,00:09.7
81,81,19.2866805,-99.14032483,0.108154297,0.072021484,0.862792969,00:22.7,00:09.7
82,82,19.28665,-99.140327,0.103515625,0.005859375,0.859619141,00:22.8,00:09.8
83,83,19.28665,-99.140327,0.069091797,-0.014404297,0.968017578,00:22.8,00:09.8
84,84,19.28665,-99.140327,0.079589844,-0.001953125,0.942871094,00:22.8,00:09.8
85,85,19.28665,-99.140327,0.110595703,0.000732422,0.898193359,00:22.8,00:09.8
86,86,19.28665,-99.140327,0.096191406,0.017578125,0.922607422,00:22.8,00:09.8
87,87,19.28665,-99.140327,0.113037109,-0.007324219,0.939941406,00:22.8,00:09.9
88,88,19.28665,-99.140327,0.125,-0.006103516,0.909423828,00:22.9,00:09.9
89,89,19.28665,-99.140327,0.098388672,0.001953125,0.914550781,00:22.9,00:09.9
90,90,19.28665,-99.140327,0.142578125,0.041992188,0.96875,00:22.9,00:09.9
91,91,19.28661917,-99.14033333,0.10546875,-0.020263672,0.964599609,00:23.2,00:10.2
92,92,19.28661917,-99.14033333,0.152587891,-0.013183594,0.910644531,00:23.3,00:10.3
93,93,19.28661917,-99.14033333,0.129394531,0.041992188,0.907226563,00:23.3,00:10.4
94,94,19.28661917,-99.14033333,0.093261719,0.062255859,0.902587891,00:23.4,00:10.4
95,95,19.28661917,-99.14033333,0.138427734,0.036132813,0.961181641,00:23.5,00:10.5
96,96,19.28661917,-99.14033333,0.177490234,0.015869141,0.922607422,00:23.6,00:10.6
97,97,19.28661917,-99.14033333,0.090576172,0.043945313,0.933349609,00:23.6,00:10.7
98,98,19.28661917,-99.14033333,0.086181641,0.066894531,0.90625,00:23.7,00:10.7
99,99,19.28661917,-99.14033333,0.033203125,0.058837891,0.904541016,00:23.7,00:10.8
100,100,19.28658167,-99.14034317,0.163818359,0.086669922,0.928466797,00:24.2,00:11.2
101,101,19.28658167,-99.14034317,0.088134766,0.110351563,0.920166016,00:25.5,00:12.5
102,102,19.28658167,-99.14034317,0.082763672,0.076416016,0.8984375,00:25.5,00:12.5
103,103,19.28658167,-99.14034317,0.0703125,0.070556641,0.870361328,00:25.5,00:12.5
104,104,19.28658167,-99.14034317,0.087890625,0.099853516,0.910888672,00:25.5,00:12.5
105,105,19.28658167,-99.14034317,0.077880859,0.147949219,0.916748047,00:25.5,00:12.6
106,106,19.28658167,-99.14034317,0.122802734,0.119384766,0.862060547,00:25.6,00:12.6
107,107,19.28658167,-99.14034317,0.137207031,0.114746094,0.842041016,00:25.6,00:12.6
108,108,19.28658167,-99.14034317,0.177246094,0.081298828,0.870849609,00:25.6,00:12.6
109,109,19.286543,-99.14035333,0.166259766,0.139404297,0.918701172,00:25.6,00:12.7
110,110,19.286543,-99.14035333,0.201171875,0.066894531,0.919433594,00:25.6,00:12.7
111,111,19.286543,-99.14035333,0.198486328,0.0546875,0.917724609,00:25.7,00:12.7
112,112,19.286543,-99.14035333,0.229736328,0.112304688,0.948486328,00:25.7,00:12.7
113,113,19.286543,-99.14035333,0.168701172,0.10546875,0.880859375,00:25.7,00:12.7
114,114,19.286543,-99.14035333,0.233398438,0.166015625,0.880371094,00:25.7,00:12.8
115,115,19.286543,-99.14035333,0.199707031,0.119384766,0.947265625,00:25.8,00:12.8
116,116,19.286543,-99.14035333,0.137939453,0.114013672,0.927490234,00:25.8,00:12.8
117,117,19.286543,-99.14035333,0.085693359,0.117919922,0.958984375,00:25.8,00:12.8
118,118,19.2865015,-99.140361,0.167724609,0.112060547,0.876220703,00:26.2,00:13.2
119,119,19.2865015,-99.140361,0.154541016,0.082275391,0.874755859,00:26.3,00:13.3
120,120,19.2865015,-99.140361,0.073242188,0.102783203,0.947265625,00:26.3,00:13.4
121,121,19.2865015,-99.140361,0.116699219,0.112304688,0.87890625,00:26.4,00:13.4
122,122,19.2865015,-99.140361,0.069580078,0.084472656,0.884765625,00:26.5,00:13.5
123,123,19.2865015,-99.140361,0.08203125,0.115966797,0.928955078,00:26.6,00:13.6
124,124,19.2865015,-99.140361,0.066650391,0.098876953,0.934082031,00:26.6,00:13.7
125,125,19.2865015,-99.140361,0.115722656,0.126708984,0.985351563,00:26.7,00:13.7
126,126,19.2865015,-99.140361,0.144287109,0.107177734,0.927246094,00:27.9,00:15.0
127,127,19.2864615,-99.14036917,0.128173828,0.123779297,0.936035156,00:27.9,00:15.0
128,128,19.2864615,-99.14036917,0.104492188,0.109863281,0.965820313,00:28.0,00:15.0
129,129,19.2864615,-99.14036917,0.131103516,0.097900391,0.973876953,00:28.0,00:15.0
130,130,19.2864615,-99.14036917,0.134033203,0.084716797,0.897705078,00:28.0,00:15.0
131,131,19.2864615,-99.14036917,0.150390625,0.084960938,0.894287109,00:28.0,00:15.0
132,132,19.2864615,-99.14036917,0.135986328,0.070800781,0.890136719,00:28.0,00:15.0
133,133,19.2864615,-99.14036917,0.124267578,0.084472656,0.944335938,00:28.0,00:15.1
134,134,19.2864615,-99.14036917,0.134277344,0.085449219,0.91796875,00:28.1,00:15.1
135,135,19.2864615,-99.14036917,0.107177734,0.102050781,0.909667969,00:28.1,00:15.1
136,136,19.28642067,-99.14037567,0.041015625,0.130615234,0.912353516,00:28.2,00:15.2
137,137,19.28642067,-99.14037567,0.051513672,0.080322266,0.954345703,00:28.3,00:15.3
138,138,19.28642067,-99.14037567,0.109619141,0.066162109,0.923095703,00:28.3,00:15.4
139,139,19.28642067,-99.14037567,0.092773438,0.035400391,0.938964844,00:28.4,00:15.4
140,140,19.28642067,-99.14037567,0.194335938,0.022216797,0.9140625,00:28.5,00:15.5
141,141,19.28642067,-99.14037567,0.154052734,0.027587891,0.903320313,00:28.6,00:15.6
142,142,19.28642067,-99.14037567,0.130371094,0.062011719,0.868164063,00:28.6,00:15.7
143,143,19.28642067,-99.14037567,0.082763672,0.03125,0.961914063,00:28.7,00:15.7
144,144,19.28642067,-99.14037567,0.080810547,0.030273438,0.901855469,00:28.7,00:15.8
145,145,19.2863795,-99.14038317,0.078369141,-0.013671875,0.892089844,00:29.2,00:16.2
146,146,19.2863795,-99.14038317,0.091552734,0.008300781,0.900878906,00:29.3,00:16.3
147,147,19.2863795,-99.14038317,0.141357422,0.120117188,0.982910156,00:29.3,00:16.4
148,148,19.2863795,-99.14038317,0.123291016,0.107421875,0.930664063,00:29.4,00:16.4
149,149,19.2863795,-99.14038317,0.100341797,0.065429688,0.921630859,00:29.5,00:16.5
150,150,19.2863795,-99.14038317,0.126708984,0.017822266,0.977783203,00:29.6,00:16.6
151,151,19.2863795,-99.14038317,0.105224609,0.049804688,0.890869141,00:30.8,00:17.9
152,152,19.2863795,-99.14038317,0.076171875,0.027587891,0.904296875,00:30.9,00:17.9
153,153,19.2863795,-99.14038317,0.090332031,0.031738281,0.996582031,00:30.9,00:17.9
154,154,19.28633383,-99.14039367,0.05078125,0.029541016,1.02734375,00:30.9,00:17.9
155,155,19.28633383,-99.14039367,0.090576172,0.051757813,0.977783203,00:30.9,00:17.9
156,156,19.28633383,-99.14039367,0.144775391,0.023193359,0.959472656,00:30.9,00:17.9
157,157,19.28633383,-99.14039367,0.108642578,0.013427734,0.901367188,00:30.9,00:18.0
158,158,19.28633383,-99.14039367,0.140380859,0.052734375,0.923095703,00:31.0,00:18.0
159,159,19.28633383,-99.14039367,0.099365234,0.034179688,0.927734375,00:31.0,00:18.0
160,160,19.28633383,-99.14039367,0.166992188,0.077636719,0.890380859,00:31.0,00:18.0
161,161,19.28633383,-99.14039367,0.130371094,0.061767578,0.965576172,00:31.0,00:18.0
162,162,19.28633383,-99.14039367,0.110595703,0.021972656,0.888671875,00:31.0,00:18.1
163,163,19.28628617,-99.1404025,0.108886719,0.058837891,0.907958984,00:31.2,00:18.3
164,164,19.28628617,-99.1404025,0.078369141,0.093017578,0.926269531,00:31.3,00:18.3
165,165,19.28628617,-99.1404025,0.098388672,0.067138672,0.873046875,00:31.3,00:18.4
166,166,19.28628617,-99.1404025,0.114501953,0.088867188,0.857666016,00:31.4,00:18.4
167,167,19.28628617,-99.1404025,0.145751953,0.125732422,0.915039063,00:31.5,00:18.5
168,168,19.28628617,-99.1404025,0.116943359,0.058105469,0.870361328,00:31.6,00:18.6
169,169,19.28628617,-99.1404025,0.088134766,0.079589844,0.881347656,00:31.6,00:18.7
170,170,19.28628617,-99.1404025,0.181640625,0.073486328,0.886474609,00:31.7,00:18.7
171,171,19.28628617,-99.1404025,0.071044922,0.133300781,0.99609375,00:31.8,00:18.8
172,172,19.28623517,-99.140413,0.086181641,0.136474609,0.990478516,00:32.2,00:19.2
173,173,19.28623517,-99.140413,0.068847656,0.14453125,0.951171875,00:32.3,00:19.3
174,174,19.28623517,-99.140413,0.068359375,0.154296875,1.012207031,00:32.3,00:19.4
175,175,19.28623517,-99.140413,0.102294922,0.08984375,0.911621094,00:32.4,00:19.4
176,176,19.28623517,-99.140413,0.158691406,0.031494141,0.876464844,00:33.6,00:20.6
177,177,19.28623517,-99.140413,0.125976563,0.079589844,0.992431641,00:33.6,00:20.6
178,178,19.28623517,-99.140413,0.271484375,0.045898438,0.888183594,00:33.6,00:20.7
179,179,19.28623517,-99.140413,0.215820313,0.137207031,0.893554688,00:33.6,00:20.7
180,180,19.28623517,-99.140413,0.150878906,0.034423828,0.932617188,00:33.7,00:20.7
181,181,19.286183,-99.14042367,0.119140625,0.013916016,0.875244141,00:33.7,00:20.7
182,182,19.286183,-99.14042367,0.076660156,0.038330078,0.960205078,00:33.7,00:20.7
183,183,19.286183,-99.14042367,0.019042969,0.067382813,0.967285156,00:33.7,00:20.7
184,184,19.286183,-99.14042367,0.106445313,0.035400391,0.919433594,00:33.7,00:20.8
185,185,19.286183,-99.14042367,0.144775391,0.056152344,0.890380859,00:33.8,00:20.8
186,186,19.286183,-99.14042367,0.137695313,0.026367188,0.87109375,00:33.8,00:20.8
187,187,19.286183,-99.14042367,0.153564453,0.030029297,0.859375,00:33.8,00:20.8
188,188,19.286183,-99.14042367,0.111816406,0.030517578,0.99609375,00:33.8,00:20.8
189,189,19.286183,-99.14042367,0.129394531,0.044433594,0.894775391,00:33.8,00:20.8
190,190,19.28612967,-99.1404265,0.104980469,0.08984375,0.938964844,00:34.2,00:21.2
191,191,19.28612967,-99.1404265,0.120849609,0.099365234,0.921630859,00:34.3,00:21.3
192,192,19.28612967,-99.1404265,0.159423828,0.033447266,0.883789063,00:34.3,00:21.4
193,193,19.28612967,-99.1404265,0.041015625,0.043701172,0.922119141,00:34.4,00:21.4
194,194,19.28612967,-99.1404265,0.079589844,-0.0078125,0.908691406,00:34.5,00:21.5
195,195,19.28612967,-99.1404265,0.198486328,0.058837891,0.929199219,00:34.6,00:21.6
196,196,19.28612967,-99.1404265,0.147705078,-0.000732422,0.854736328,00:34.6,00:21.7
197,197,19.28612967,-99.1404265,0.165527344,0.047851563,0.872070313,00:34.7,00:21.7
198,198,19.28612967,-99.1404265,0.115478516,0.060791016,0.965820313,00:34.8,00:21.8
199,199,19.286074,-99.140436,0.197021484,0.049072266,0.903320313,00:35.2,00:22.3
200,200,19.286074,-99.140436,0.148925781,0.049072266,0.975341797,00:35.3,00:22.3
201,201,19.286074,-99.140436,0.150390625,0.128173828,0.93359375,00:36.5,00:23.5
202,202,19.286074,-99.140436,0.162597656,0.085693359,0.862304688,00:36.5,00:23.5
203,203,19.286074,-99.140436,0.137695313,0.129394531,0.909667969,00:36.5,00:23.6
204,204,19.286074,-99.140436,0.117431641,0.135986328,0.859130859,00:36.6,00:23.6
205,205,19.286074,-99.140436,0.109863281,0.118408203,0.820068359,00:36.6,00:23.6
206,206,19.286074,-99.140436,0.120849609,0.0859375,0.91796875,00:36.6,00:23.6
207,207,19.286074,-99.140436,0.1328125,0.103027344,0.919433594,00:36.6,00:23.6
208,208,19.2860155,-99.14044533,0.129394531,0.148925781,0.947265625,00:36.6,00:23.6
209,209,19.2860155,-99.14044533,0.045166016,0.155273438,0.946044922,00:36.6,00:23.7
210,210,19.2860155,-99.14044533,0.028320313,0.109619141,0.956787109,00:36.7,00:23.7
211,211,19.2860155,-99.14044533,0.15234375,0.116699219,0.925537109,00:36.7,00:23.7
212,212,19.2860155,-99.14044533,0.159179688,0.099365234,0.867675781,00:36.7,00:23.7
213,213,19.2860155,-99.14044533,0.059814453,0.146728516,0.924072266,00:36.7,00:23.7
214,214,19.2860155,-99.14044533,0.157226563,0.165283203,0.982177734,00:36.7,00:23.7
215,215,19.2860155,-99.14044533,0.140380859,0.181396484,0.952392578,00:36.7,00:23.8
216,216,19.2860155,-99.14044533,0.100341797,0.148925781,0.93359375,00:36.7,00:23.8
217,217,19.28595667,-99.14045167,0.262207031,0.050048828,0.954345703,00:37.2,00:24.2
218,218,19.28595667,-99.14045167,0.105957031,0.148681641,0.967285156,00:37.3,00:24.3
219,219,19.28595667,-99.14045167,0.147216797,0.171386719,0.940185547,00:37.3,00:24.4
220,220,19.28595667,-99.14045167,0.045654297,0.20703125,0.903808594,00:37.4,00:24.4
221,221,19.28595667,-99.14045167,0.095458984,0.149414063,0.779541016,00:37.5,00:24.5
222,222,19.28595667,-99.14045167,0.102783203,0.167724609,0.862304688,00:37.6,00:24.6
223,223,19.28595667,-99.14045167,0.15234375,0.142089844,0.872558594,00:37.6,00:24.7
224,224,19.28595667,-99.14045167,0.143066406,0.149169922,0.894287109,00:37.7,00:24.7
225,225,19.28595667,-99.14045167,0.106933594,0.171630859,0.976806641,00:37.7,00:24.8
226,226,19.2859005,-99.14045817,0.103027344,0.119384766,0.983398438,00:39.0,00:26.0
227,227,19.2859005,-99.14045817,0.102783203,0.044677734,0.958740234,00:39.0,00:26.1
228,228,19.2859005,-99.14045817,0.101806641,0.093505859,0.948730469,00:39.0,00:26.1
229,229,19.2859005,-99.14045817,0.104248047,0.086181641,0.890625,00:39.1,00:26.1
230,230,19.2859005,-99.14045817,0.100830078,0.111816406,0.955810547,00:39.1,00:26.1
231,231,19.2859005,-99.14045817,0.046875,0.087158203,0.907470703,00:39.1,00:26.1
232,232,19.2859005,-99.14045817,0.015625,0.128662109,0.963134766,00:39.1,00:26.1
233,233,19.2859005,-99.14045817,0.060791016,0.138671875,0.901123047,00:39.1,00:26.2
234,234,19.2859005,-99.14045817,0.141113281,0.139892578,0.975585938,00:39.1,00:26.2
235,235,19.28584667,-99.14046733,0.103271484,0.201904297,0.981201172,00:39.2,00:26.2
236,236,19.28584667,-99.14046733,0.064453125,0.116943359,0.941650391,00:39.3,00:26.3
237,237,19.28584667,-99.14046733,0.144042969,0.090820313,0.920166016,00:39.3,00:26.4
238,238,19.28584667,-99.14046733,0.130126953,0.030761719,0.882080078,00:39.4,00:26.4
239,239,19.28584667,-99.14046733,0.070556641,0.143554688,0.953369141,00:39.5,00:26.5
240,240,19.28584667,-99.14046733,0.103027344,0.129394531,0.922119141,00:39.6,00:26.6
241,241,19.28584667,-99.14046733,0.128662109,0.077148438,0.896484375,00:39.6,00:26.7
242,242,19.28584667,-99.14046733,0.134033203,0.043701172,0.882324219,00:39.7,00:26.7
243,243,19.28584667,-99.14046733,0.159667969,0.048095703,0.823974609,00:39.7,00:26.8
244,244,19.285794,-99.14047583,0.041259766,0.032226563,0.877685547,00:40.2,00:27.2
245,245,19.285794,-99.14047583,0.138427734,0.017333984,0.858154297,00:40.3,00:27.3
246,246,19.285794,-99.14047583,0.177246094,0.117431641,0.864257813,00:40.3,00:27.4
247,247,19.285794,-99.14047583,0.106689453,0.126220703,0.952636719,00:40.4,00:27.4
248,248,19.285794,-99.14047583,0.161376953,0.133056641,1.007324219,00:40.5,00:27.5
249,249,19.285794,-99.14047583,0.133300781,0.080566406,0.932373047,00:40.6,00:27.6
250,250,19.285794,-99.14047583,0.150146484,0.120849609,0.928710938,00:40.6,00:27.7
251,251,19.285794,-99.14047583,0.024658203,0.157470703,0.974121094,00:41.9,00:29.0
252,252,19.285794,-99.14047583,0.009277344,0.144042969,1.03125,00:41.9,00:29.0
253,253,19.28573717,-99.140488,0.029052734,0.062988281,0.958984375,00:42.0,00:29.0
254,254,19.28573717,-99.140488,0.065673828,0.103759766,0.941162109,00:42.0,00:29.0
255,255,19.28573717,-99.140488,0.098876953,0.103759766,0.855224609,00:42.0,00:29.0
256,256,19.28573717,-99.140488,0.108154297,0.093505859,0.904052734,00:42.0,00:29.0
257,257,19.28573717,-99.140488,0.128417969,0.080566406,0.916748047,00:42.0,00:29.1
258,258,19.28573717,-99.140488,0.03515625,0.103271484,0.936767578,00:42.1,00:29.1
259,259,19.28573717,-99.140488,-0.020263672,0.130859375,0.935791016,00:42.1,00:29.1
260,260,19.28573717,-99.140488,0.013427734,0.094726563,0.866210938,00:42.1,00:29.1
261,261,19.28573717,-99.140488,0.062988281,0.093017578,0.895751953,00:42.1,00:29.1
262,262,19.28568167,-99.140495,0.105957031,0.065673828,0.909179688,00:42.2,00:29.3
263,263,19.28568167,-99.140495,0.114746094,0.083984375,0.965087891,00:42.3,00:29.3
264,264,19.28568167,-99.140495,0.072021484,0.095214844,0.993652344,00:42.4,00:29.4
265,265,19.28568167,-99.140495,0.075439453,0.167724609,0.972412109,00:42.4,00:29.4
266,266,19.28568167,-99.140495,0.059570313,0.099365234,0.938476563,00:42.5,00:29.5
267,267,19.28568167,-99.140495,0.1328125,0.073242188,0.883300781,00:42.6,00:29.6
268,268,19.28568167,-99.140495,0.056396484,0.095214844,0.956298828,00:42.6,00:29.7
269,269,19.28568167,-99.140495,0.094238281,0.084716797,0.926513672,00:42.7,00:29.7
270,270,19.28568167,-99.140495,0.160644531,0.081542969,0.806152344,00:42.8,00:29.8
271,271,19.28562883,-99.140501,0.12109375,0.120605469,0.927490234,00:43.2,00:30.2
272,272,19.28562883,-99.140501,0.067382813,0.109863281,0.922851563,00:43.3,00:30.3
273,273,19.28562883,-99.140501,0.090820313,0.123046875,0.948486328,00:43.3,00:30.4
274,274,19.28562883,-99.140501,0.090332031,0.113769531,0.895996094,00:43.4,00:30.4
275,275,19.28562883,-99.140501,0.145507813,0.100830078,0.879638672,00:43.5,00:30.5
276,276,19.28562883,-99.140501,0.152832031,0.053710938,0.903808594,00:45.4,00:32.4
277,277,19.28562883,-99.140501,0.143310547,0.039306641,0.863769531,00:45.6,00:32.6
278,278,19.28562883,-99.140501,0.201660156,0.009521484,0.874755859,00:45.6,00:32.7
279,279,19.28562883,-99.140501,0.058105469,0.024169922,0.8984375,00:45.9,00:32.9
280,280,19.2855795,-99.140512,0.148681641,0.046875,0.919433594,00:45.9,00:32.9
281,281,19.2855795,-99.140512,0.076904297,0.040527344,0.8984375,00:46.0,00:33.1
282,282,19.2855795,-99.140512,0.098144531,0.047607422,0.832275391,00:46.2,00:33.2
283,283,19.2855795,-99.140512,0.142822266,0.035888672,0.885742188,00:46.2,00:33.3
284,284,19.2855795,-99.140512,0.157714844,0.058837891,0.896240234,00:46.4,00:33.4
285,285,19.2855795,-99.140512,0.077880859,0.072021484,0.865966797,00:46.6,00:33.6
286,286,19.2855795,-99.140512,0.080810547,0.103759766,0.974121094,00:46.6,00:33.6
287,287,19.2855795,-99.140512,0.087402344,0.058837891,0.911621094,00:46.6,00:33.7
288,288,19.2855795,-99.140512,-0.069824219,0.135253906,0.947509766,00:46.7,00:33.7
289,289,19.2855265,-99.14051983,-0.051513672,0.215332031,0.95703125,00:46.7,00:33.7
290,290,19.2855265,-99.14051983,0.009521484,0.054199219,0.910400391,00:46.7,00:33.7
291,291,19.2855265,-99.14051983,0.068115234,0.092285156,0.931884766,00:46.7,00:33.7
292,292,19.2855265,-99.14051983,0.151611328,0.094238281,0.969238281,00:46.7,00:33.8
293,293,19.2855265,-99.14051983,0.165283203,0.063476563,0.961669922,00:46.8,00:33.8
294,294,19.2855265,-99.14051983,0.188964844,0.01953125,0.912597656,00:46.8,00:33.8
295,295,19.2855265,-99.14051983,0.185791016,0.001708984,0.817138672,00:46.8,00:33.9
296,296,19.2855265,-99.14051983,0.2109375,0.022949219,0.849121094,00:46.9,00:33.9
297,297,19.2855265,-99.14051983,0.184814453,0.058837891,0.934814453,00:46.9,00:33.9
298,298,19.28547,-99.1405275,0.201904297,0.059570313,0.802490234,00:46.9,00:33.9
299,299,19.28547,-99.1405275,0.15234375,0.026367188,0.867675781,00:46.9,00:33.9
300,300,19.28547,-99.1405275,0.168457031,0.020019531,0.836914063,00:46.9,00:34.0
301,301,19.28547,-99.1405275,0.104003906,0.054931641,0.911376953,00:48.6,00:35.6
302,302,19.28547,-99.1405275,0.15234375,0.039550781,0.950195313,00:48.6,00:35.6
303,303,19.28547,-99.1405275,0.156738281,0.055175781,0.935058594,00:48.6,00:35.7
304,304,19.28547,-99.1405275,0.158447266,0.062988281,0.873535156,00:48.7,00:35.7
305,305,19.28547,-99.1405275,0.092529297,0.082763672,0.869140625,00:48.7,00:35.7
306,306,19.28547,-99.1405275,0.137207031,0.047607422,0.935546875,00:48.7,00:35.7
307,307,19.28541217,-99.14053583,0.110839844,0.098876953,0.969238281,00:48.7,00:35.7
308,308,19.28541217,-99.14053583,0.170410156,0.055908203,0.894042969,00:48.8,00:35.8
309,309,19.28541217,-99.14053583,0.131103516,0.102539063,0.968261719,00:48.8,00:35.8
310,310,19.28541217,-99.14053583,0.125488281,0.056396484,0.914794922,00:48.8,00:35.8
311,311,19.28541217,-99.14053583,0.143310547,0.057861328,0.910400391,00:48.8,00:35.9
312,312,19.28541217,-99.14053583,0.107421875,0.063964844,0.939208984,00:48.9,00:35.9
313,313,19.28541217,-99.14053583,0.139160156,0.075195313,0.864990234,00:48.9,00:35.9
314,314,19.28541217,-99.14053583,0.141113281,0.051757813,0.848144531,00:48.9,00:35.9
315,315,19.28541217,-99.14053583,0.135253906,0.075927734,0.930175781,00:48.9,00:35.9
316,316,19.28535183,-99.14054267,0.129394531,0.099609375,0.924072266,00:48.9,00:36.0
317,317,19.28535183,-99.14054267,0.120849609,0.081542969,0.939208984,00:49.0,00:36.0
318,318,19.28535183,-99.14054267,0.154296875,0.063720703,0.887451172,00:49.0,00:36.0
319,319,19.28535183,-99.14054267,0.201904297,0.053710938,0.913085938,00:49.0,00:36.0
320,320,19.28535183,-99.14054267,0.205566406,0.159179688,0.890625,00:49.0,00:36.0
321,321,19.28535183,-99.14054267,0.195068359,0.072509766,0.915527344,00:49.0,00:36.1
322,322,19.28535183,-99.14054267,0.086914063,0.067871094,0.943603516,00:49.1,00:36.1
323,323,19.28535183,-99.14054267,0.033447266,0.115966797,0.98046875,00:49.1,00:36.1
324,324,19.28535183,-99.14054267,0.0234375,0.084960938,0.936523438,00:49.1,00:36.1
325,325,19.28529033,-99.14054967,0.094970703,0.057128906,0.893310547,00:49.2,00:36.2
326,326,19.28529033,-99.14054967,0.093017578,0.060302734,0.892578125,00:52.2,00:39.3
327,327,19.28529033,-99.14054967,0.088623047,0.102294922,0.894287109,00:52.3,00:39.3
328,328,19.28529033,-99.14054967,0.105957031,0.091796875,0.914794922,00:52.3,00:39.3
329,329,19.28529033,-99.14054967,0.143798828,0.071777344,0.873535156,00:52.3,00:39.3
330,330,19.28529033,-99.14054967,0.173583984,0.06640625,0.830566406,00:52.3,00:39.3
331,331,19.28529033,-99.14054967,0.091552734,0.05859375,0.848388672,00:52.3,00:39.4
332,332,19.28529033,-99.14054967,0.063964844,0.064697266,0.881835938,00:52.4,00:39.4
333,333,19.28529033,-99.14054967,0.091796875,0.093994141,0.947998047,00:52.4,00:39.4
334,334,19.28523033,-99.1405495,0.091552734,0.072509766,0.964599609,00:52.4,00:39.4
335,335,19.28523033,-99.1405495,0.103027344,0.089599609,0.913330078,00:52.4,00:39.5
336,336,19.28523033,-99.1405495,0.080078125,0.14453125,0.866943359,00:52.5,00:39.5
337,337,19.28523033,-99.1405495,0.098632813,0.110351563,0.890136719,00:52.5,00:39.5
338,338,19.28523033,-99.1405495,0.103759766,0.100585938,0.903808594,00:52.5,00:39.5
339,339,19.28523033,-99.1405495,0.109619141,0.104492188,0.862792969,00:52.5,00:39.6
340,340,19.28523033,-99.1405495,0.10546875,0.1015625,0.879882813,00:52.6,00:39.6
341,341,19.28523033,-99.1405495,0.049072266,0.119140625,0.891845703,00:52.6,00:39.6
342,342,19.28523033,-99.1405495,0.050048828,0.111572266,0.864990234,00:52.6,00:39.6
343,343,19.28516767,-99.14054783,0.104492188,0.10546875,0.934082031,00:52.6,00:39.7
344,344,19.28516767,-99.14054783,0.122070313,0.134033203,0.947998047,00:52.7,00:39.7
345,345,19.28516767,-99.14054783,0.123779297,0.084716797,0.916503906,00:52.7,00:39.7
346,346,19.28516767,-99.14054783,0.112304688,0.129638672,0.914306641,00:52.7,00:39.7
347,347,19.28516767,-99.14054783,0.137695313,0.118896484,0.945800781,00:52.7,00:39.8
348,348,19.28516767,-99.14054783,0.104003906,0.138916016,0.927490234,00:52.8,00:39.8
349,349,19.28516767,-99.14054783,0.122314453,0.140869141,0.913330078,00:52.8,00:39.8
350,350,19.28516767,-99.14054783,0.131103516,0.118164063,0.924560547,00:52.8,00:39.8
