,countOBU,countRSU,latitude,longitude,Ax,Ay,Az,datetime,timeFromBeginning
65,66,66,19.28506867,-99.14053583,0.172119141,0.014892578,0.882568359,26:29.9,00:07.6
66,67,67,19.28506867,-99.14053583,0.136474609,0.016357422,0.927246094,26:29.9,00:07.7
67,68,68,19.28506867,-99.14053583,0.113769531,0.061523438,0.897216797,26:30.0,00:07.7
68,69,69,19.28506867,-99.14053583,0.442626953,-0.112060547,0.819335938,26:30.1,00:07.8
69,70,70,19.28506867,-99.14053583,0.117675781,-0.140380859,0.787353516,26:30.2,00:07.9
70,71,71,19.28506867,-99.14053583,-0.158203125,-0.004394531,0.9296875,26:30.2,00:08.0
71,72,72,19.28506867,-99.14053583,-0.746582031,0.704589844,1.380615234,26:30.3,00:08.0
72,73,73,19.28500667,-99.14054133,0.247070313,0.143554688,0.92578125,26:30.8,00:08.5
73,74,74,19.28500667,-99.14054133,0.200683594,-0.040527344,0.787109375,26:30.8,00:08.5
74,75,75,19.28500667,-99.14054133,0.184082031,0.096679688,0.780273438,26:30.9,00:08.6
75,76,76,19.28500667,-99.14054133,0.072021484,-0.066894531,0.958007813,26:32.0,00:09.7
76,77,77,19.28500667,-99.14054133,0.128417969,-0.074951172,0.964355469,26:32.0,00:09.7
77,78,78,19.28500667,-99.14054133,0.134521484,0.0859375,0.898925781,26:32.0,00:09.8
78,79,79,19.28500667,-99.14054133,0.118896484,0.082519531,0.801513672,26:32.0,00:09.8
79,80,80,19.28500667,-99.14054133,0.137695313,0.027832031,0.867919922,26:32.1,00:09.8
80,81,81,19.28500667,-99.14054133,0.136230469,0.009277344,0.813232422,26:32.1,00:09.8
81,82,82,19.28493433,-99.14054433,0.084228516,-0.029541016,1.024169922,26:32.1,00:09.8
82,83,83,19.28493433,-99.14054433,0.007324219,-0.025634766,0.934326172,26:32.1,00:09.8
83,84,84,19.28493433,-99.14054433,0.031982422,0.006835938,1.005859375,26:32.1,00:09.8
84,85,85,19.28493433,-99.14054433,0.102539063,0.043212891,0.818115234,26:32.1,00:09.9
65,66,66,19.28506867,-99.14053583,0.172119141,0.014892578,0.882568359,26:29.9,00:07.6
66,67,67,19.28506867,-99.14053583,0.136474609,0.016357422,0.927246094,26:29.9,00:07.7
67,68,68,19.28506867,-99.14053583,0.113769531,0.061523438,0.897216797,26:30.0,00:07.7
68,69,69,19.28506867,-99.14053583,0.442626953,-0.112060547,0.819335938,26:30.1,00:07.8
69,70,70,19.28506867,-99.14053583,0.117675781,-0.140380859,0.787353516,26:30.2,00:07.9
70,71,71,19.28506867,-99.14053583,-0.158203125,-0.004394531,0.9296875,26:30.2,00:08.0
71,72,72,19.28506867,-99.14053583,-0.746582031,0.704589844,1.380615234,26:30.3,00:08.0
72,73,73,19.28500667,-99.14054133,0.247070313,0.143554688,0.92578125,26:30.8,00:08.5
73,74,74,19.28500667,-99.14054133,0.200683594,-0.040527344,0.787109375,26:30.8,00:08.5
74,75,75,19.28500667,-99.14054133,0.184082031,0.096679688,0.780273438,26:30.9,00:08.6
75,76,76,19.28500667,-99.14054133,0.072021484,-0.066894531,0.958007813,26:32.0,00:09.7
76,77,77,19.28500667,-99.14054133,0.128417969,-0.074951172,0.964355469,26:32.0,00:09.7
77,78,78,19.28500667,-99.14054133,0.134521484,0.0859375,0.898925781,26:32.0,00:09.8
78,79,79,19.28500667,-99.14054133,0.118896484,0.082519531,0.801513672,26:32.0,00:09.8
79,80,80,19.28500667,-99.14054133,0.137695313,0.027832031,0.867919922,26:32.1,00:09.8
80,81,81,19.28500667,-99.14054133,0.136230469,0.009277344,0.813232422,26:32.1,00:09.8
81,82,82,19.28493433,-99.14054433,0.084228516,-0.029541016,1.024169922,26:32.1,00:09.8
82,83,83,19.28493433,-99.14054433,0.007324219,-0.025634766,0.934326172,26:32.1,00:09.8
83,84,84,19.28493433,-99.14054433,0.031982422,0.006835938,1.005859375,26:32.1,00:09.8
84,85,85,19.28493433,-99.14054433,0.102539063,0.043212891,0.818115234,26:32.1,00:09.9
65,66,66,19.28506867,-99.14053583,0.172119141,0.014892578,0.882568359,26:29.9,00:07.6
66,67,67,19.28506867,-99.14053583,0.136474609,0.016357422,0.927246094,26:29.9,00:07.7
67,68,68,19.28506867,-99.14053583,0.113769531,0.061523438,0.897216797,26:30.0,00:07.7
68,69,69,19.28506867,-99.14053583,0.442626953,-0.112060547,0.819335938,26:30.1,00:07.8
69,70,70,19.28506867,-99.14053583,0.117675781,-0.140380859,0.787353516,26:30.2,00:07.9
70,71,71,19.28506867,-99.14053583,-0.158203125,-0.004394531,0.9296875,26:30.2,00:08.0
71,72,72,19.28506867,-99.14053583,-0.746582031,0.704589844,1.380615234,26:30.3,00:08.0
72,73,73,19.28500667,-99.14054133,0.247070313,0.143554688,0.92578125,26:30.8,00:08.5
73,74,74,19.28500667,-99.14054133,0.200683594,-0.040527344,0.787109375,26:30.8,00:08.5
74,75,75,19.28500667,-99.14054133,0.184082031,0.096679688,0.780273438,26:30.9,00:08.6
75,76,76,19.28500667,-99.14054133,0.072021484,-0.066894531,0.958007813,26:32.0,00:09.7
76,77,77,19.28500667,-99.14054133,0.128417969,-0.074951172,0.964355469,26:32.0,00:09.7
77,78,78,19.28500667,-99.14054133,0.134521484,0.0859375,0.898925781,26:32.0,00:09.8
78,79,79,19.28500667,-99.14054133,0.118896484,0.082519531,0.801513672,26:32.0,00:09.8
79,80,80,19.28500667,-99.14054133,0.137695313,0.027832031,0.867919922,26:32.1,00:09.8
80,81,81,19.28500667,-99.14054133,0.136230469,0.009277344,0.813232422,26:32.1,00:09.8
81,82,82,19.28493433,-99.14054433,0.084228516,-0.029541016,1.024169922,26:32.1,00:09.8
82,83,83,19.28493433,-99.14054433,0.007324219,-0.025634766,0.934326172,26:32.1,00:09.8
83,84,84,19.28493433,-99.14054433,0.031982422,0.006835938,1.005859375,26:32.1,00:09.8
84,85,85,19.28493433,-99.14054433,0.102539063,0.043212891,0.818115234,26:32.1,00:09.9
65,66,66,19.28506867,-99.14053583,0.172119141,0.014892578,0.882568359,26:29.9,00:07.6
66,67,67,19.28506867,-99.14053583,0.136474609,0.016357422,0.927246094,26:29.9,00:07.7
67,68,68,19.28506867,-99.14053583,0.113769531,0.061523438,0.897216797,26:30.0,00:07.7
68,69,69,19.28506867,-99.14053583,0.442626953,-0.112060547,0.819335938,26:30.1,00:07.8
69,70,70,19.28506867,-99.14053583,0.117675781,-0.140380859,0.787353516,26:30.2,00:07.9
70,71,71,19.28506867,-99.14053583,-0.158203125,-0.004394531,0.9296875,26:30.2,00:08.0
71,72,72,19.28506867,-99.14053583,-0.746582031,0.704589844,1.380615234,26:30.3,00:08.0
72,73,73,19.28500667,-99.14054133,0.247070313,0.143554688,0.92578125,26:30.8,00:08.5
73,74,74,19.28500667,-99.14054133,0.200683594,-0.040527344,0.787109375,26:30.8,00:08.5
74,75,75,19.28500667,-99.14054133,0.184082031,0.096679688,0.780273438,26:30.9,00:08.6
75,76,76,19.28500667,-99.14054133,0.072021484,-0.066894531,0.958007813,26:32.0,00:09.7
76,77,77,19.28500667,-99.14054133,0.128417969,-0.074951172,0.964355469,26:32.0,00:09.7
77,78,78,19.28500667,-99.14054133,0.134521484,0.0859375,0.898925781,26:32.0,00:09.8
78,79,79,19.28500667,-99.14054133,0.118896484,0.082519531,0.801513672,26:32.0,00:09.8
79,80,80,19.28500667,-99.14054133,0.137695313,0.027832031,0.867919922,26:32.1,00:09.8
80,81,81,19.28500667,-99.14054133,0.136230469,0.009277344,0.813232422,26:32.1,00:09.8
81,82,82,19.28493433,-99.14054433,0.084228516,-0.029541016,1.024169922,26:32.1,00:09.8
82,83,83,19.28493433,-99.14054433,0.007324219,-0.025634766,0.934326172,26:32.1,00:09.8
83,84,84,19.28493433,-99.14054433,0.031982422,0.006835938,1.005859375,26:32.1,00:09.8
84,85,85,19.28493433,-99.14054433,0.102539063,0.043212891,0.818115234,26:32.1,00:09.9
65,66,66,19.28506867,-99.14053583,0.172119141,0.014892578,0.882568359,26:29.9,00:07.6
66,67,67,19.28506867,-99.14053583,0.136474609,0.016357422,0.927246094,26:29.9,00:07.7
67,68,68,19.28506867,-99.14053583,0.113769531,0.061523438,0.897216797,26:30.0,00:07.7
68,69,69,19.28506867,-99.14053583,0.442626953,-0.112060547,0.819335938,26:30.1,00:07.8
69,70,70,19.28506867,-99.14053583,0.117675781,-0.140380859,0.787353516,26:30.2,00:07.9
70,71,71,19.28506867,-99.14053583,-0.158203125,-0.004394531,0.9296875,26:30.2,00:08.0
71,72,72,19.28506867,-99.14053583,-0.746582031,0.704589844,1.380615234,26:30.3,00:08.0
72,73,73,19.28500667,-99.14054133,0.247070313,0.143554688,0.92578125,26:30.8,00:08.5
73,74,74,19.28500667,-99.14054133,0.200683594,-0.040527344,0.787109375,26:30.8,00:08.5
74,75,75,19.28500667,-99.14054133,0.184082031,0.096679688,0.780273438,26:30.9,00:08.6
75,76,76,19.28500667,-99.14054133,0.072021484,-0.066894531,0.958007813,26:32.0,00:09.7
76,77,77,19.28500667,-99.14054133,0.128417969,-0.074951172,0.964355469,26:32.0,00:09.7
77,78,78,19.28500667,-99.14054133,0.134521484,0.0859375,0.898925781,26:32.0,00:09.8
78,79,79,19.28500667,-99.14054133,0.118896484,0.082519531,0.801513672,26:32.0,00:09.8
79,80,80,19.28500667,-99.14054133,0.137695313,0.027832031,0.867919922,26:32.1,00:09.8
80,81,81,19.28500667,-99.14054133,0.136230469,0.009277344,0.813232422,26:32.1,00:09.8
81,82,82,19.28493433,-99.14054433,0.084228516,-0.029541016,1.024169922,26:32.1,00:09.8
82,83,83,19.28493433,-99.14054433,0.007324219,-0.025634766,0.934326172,26:32.1,00:09.8
83,84,84,19.28493433,-99.14054433,0.031982422,0.006835938,1.005859375,26:32.1,00:09.8
84,85,85,19.28493433,-99.14054433,0.102539063,0.043212891,0.818115234,26:32.1,00:09.9
65,66,66,19.28506867,-99.14053583,0.172119141,0.014892578,0.882568359,26:29.9,00:07.6
66,67,67,19.28506867,-99.14053583,0.136474609,0.016357422,0.927246094,26:29.9,00:07.7
67,68,68,19.28506867,-99.14053583,0.113769531,0.061523438,0.897216797,26:30.0,00:07.7
68,69,69,19.28506867,-99.14053583,0.442626953,-0.112060547,0.819335938,26:30.1,00:07.8
69,70,70,19.28506867,-99.14053583,0.117675781,-0.140380859,0.787353516,26:30.2,00:07.9
70,71,71,19.28506867,-99.14053583,-0.158203125,-0.004394531,0.9296875,26:30.2,00:08.0
71,72,72,19.28506867,-99.14053583,-0.746582031,0.704589844,1.380615234,26:30.3,00:08.0
72,73,73,19.28500667,-99.14054133,0.247070313,0.143554688,0.92578125,26:30.8,00:08.5
73,74,74,19.28500667,-99.14054133,0.200683594,-0.040527344,0.787109375,26:30.8,00:08.5
74,75,75,19.28500667,-99.14054133,0.184082031,0.096679688,0.780273438,26:30.9,00:08.6
75,76,76,19.28500667,-99.14054133,0.072021484,-0.066894531,0.958007813,26:32.0,00:09.7
76,77,77,19.28500667,-99.14054133,0.128417969,-0.074951172,0.964355469,26:32.0,00:09.7
77,78,78,19.28500667,-99.14054133,0.134521484,0.0859375,0.898925781,26:32.0,00:09.8
78,79,79,19.28500667,-99.14054133,0.118896484,0.082519531,0.801513672,26:32.0,00:09.8
79,80,80,19.28500667,-99.14054133,0.137695313,0.027832031,0.867919922,26:32.1,00:09.8
80,81,81,19.28500667,-99.14054133,0.136230469,0.009277344,0.813232422,26:32.1,00:09.8
81,82,82,19.28493433,-99.14054433,0.084228516,-0.029541016,1.024169922,26:32.1,00:09.8
82,83,83,19.28493433,-99.14054433,0.007324219,-0.025634766,0.934326172,26:32.1,00:09.8
83,84,84,19.28493433,-99.14054433,0.031982422,0.006835938,1.005859375,26:32.1,00:09.8
84,85,85,19.28493433,-99.14054433,0.102539063,0.043212891,0.818115234,26:32.1,00:09.9
65,66,66,19.28506867,-99.14053583,0.172119141,0.014892578,0.882568359,26:29.9,00:07.6
66,67,67,19.28506867,-99.14053583,0.136474609,0.016357422,0.927246094,26:29.9,00:07.7
67,68,68,19.28506867,-99.14053583,0.113769531,0.061523438,0.897216797,26:30.0,00:07.7
68,69,69,19.28506867,-99.14053583,0.442626953,-0.112060547,0.819335938,26:30.1,00:07.8
69,70,70,19.28506867,-99.14053583,0.117675781,-0.140380859,0.787353516,26:30.2,00:07.9
70,71,71,19.28506867,-99.14053583,-0.158203125,-0.004394531,0.9296875,26:30.2,00:08.0
71,72,72,19.28506867,-99.14053583,-0.746582031,0.704589844,1.380615234,26:30.3,00:08.0
72,73,73,19.28500667,-99.14054133,0.247070313,0.143554688,0.92578125,26:30.8,00:08.5
73,74,74,19.28500667,-99.14054133,0.200683594,-0.040527344,0.787109375,26:30.8,00:08.5
74,75,75,19.28500667,-99.14054133,0.184082031,0.096679688,0.780273438,26:30.9,00:08.6
75,76,76,19.28500667,-99.14054133,0.072021484,-0.066894531,0.958007813,26:32.0,00:09.7
76,77,77,19.28500667,-99.14054133,0.128417969,-0.074951172,0.964355469,26:32.0,00:09.7
77,78,78,19.28500667,-99.14054133,0.134521484,0.0859375,0.898925781,26:32.0,00:09.8
78,79,79,19.28500667,-99.14054133,0.118896484,0.082519531,0.801513672,26:32.0,00:09.8
79,80,80,19.28500667,-99.14054133,0.137695313,0.027832031,0.867919922,26:32.1,00:09.8
80,81,81,19.28500667,-99.14054133,0.136230469,0.009277344,0.813232422,26:32.1,00:09.8
81,82,82,19.28493433,-99.14054433,0.084228516,-0.029541016,1.024169922,26:32.1,00:09.8
82,83,83,19.28493433,-99.14054433,0.007324219,-0.025634766,0.934326172,26:32.1,00:09.8
83,84,84,19.28493433,-99.14054433,0.031982422,0.006835938,1.005859375,26:32.1,00:09.8
84,85,85,19.28493433,-99.14054433,0.102539063,0.043212891,0.818115234,26:32.1,00:09.9
65,66,66,19.28506867,-99.14053583,0.172119141,0.014892578,0.882568359,26:29.9,00:07.6
66,67,67,19.28506867,-99.14053583,0.136474609,0.016357422,0.927246094,26:29.9,00:07.7
67,68,68,19.28506867,-99.14053583,0.113769531,0.061523438,0.897216797,26:30.0,00:07.7
68,69,69,19.28506867,-99.14053583,0.442626953,-0.112060547,0.819335938,26:30.1,00:07.8
69,70,70,19.28506867,-99.14053583,0.117675781,-0.140380859,0.787353516,26:30.2,00:07.9
70,71,71,19.28506867,-99.14053583,-0.158203125,-0.004394531,0.9296875,26:30.2,00:08.0
71,72,72,19.28506867,-99.14053583,-0.746582031,0.704589844,1.380615234,26:30.3,00:08.0
72,73,73,19.28500667,-99.14054133,0.247070313,0.143554688,0.92578125,26:30.8,00:08.5
73,74,74,19.28500667,-99.14054133,0.200683594,-0.040527344,0.787109375,26:30.8,00:08.5
74,75,75,19.28500667,-99.14054133,0.184082031,0.096679688,0.780273438,26:30.9,00:08.6
75,76,76,19.28500667,-99.14054133,0.072021484,-0.066894531,0.958007813,26:32.0,00:09.7
76,77,77,19.28500667,-99.14054133,0.128417969,-0.074951172,0.964355469,26:32.0,00:09.7
77,78,78,19.28500667,-99.14054133,0.134521484,0.0859375,0.898925781,26:32.0,00:09.8
78,79,79,19.28500667,-99.14054133,0.118896484,0.082519531,0.801513672,26:32.0,00:09.8
79,80,80,19.28500667,-99.14054133,0.137695313,0.027832031,0.867919922,26:32.1,00:09.8
80,81,81,19.28500667,-99.14054133,0.136230469,0.009277344,0.813232422,26:32.1,00:09.8
81,82,82,19.28493433,-99.14054433,0.084228516,-0.029541016,1.024169922,26:32.1,00:09.8
82,83,83,19.28493433,-99.14054433,0.007324219,-0.025634766,0.934326172,26:32.1,00:09.8
83,84,84,19.28493433,-99.14054433,0.031982422,0.006835938,1.005859375,26:32.1,00:09.8
84,85,85,19.28493433,-99.14054433,0.102539063,0.043212891,0.818115234,26:32.1,00:09.9
65,66,66,19.28506867,-99.14053583,0.172119141,0.014892578,0.882568359,26:29.9,00:07.6
66,67,67,19.28506867,-99.14053583,0.136474609,0.016357422,0.927246094,26:29.9,00:07.7
67,68,68,19.28506867,-99.14053583,0.113769531,0.061523438,0.897216797,26:30.0,00:07.7
68,69,69,19.28506867,-99.14053583,0.442626953,-0.112060547,0.819335938,26:30.1,00:07.8
69,70,70,19.28506867,-99.14053583,0.117675781,-0.140380859,0.787353516,26:30.2,00:07.9
70,71,71,19.28506867,-99.14053583,-0.158203125,-0.004394531,0.9296875,26:30.2,00:08.0
71,72,72,19.28506867,-99.14053583,-0.746582031,0.704589844,1.380615234,26:30.3,00:08.0
72,73,73,19.28500667,-99.14054133,0.247070313,0.143554688,0.92578125,26:30.8,00:08.5
73,74,74,19.28500667,-99.14054133,0.200683594,-0.040527344,0.787109375,26:30.8,00:08.5
74,75,75,19.28500667,-99.14054133,0.184082031,0.096679688,0.780273438,26:30.9,00:08.6
75,76,76,19.28500667,-99.14054133,0.072021484,-0.066894531,0.958007813,26:32.0,00:09.7
76,77,77,19.28500667,-99.14054133,0.128417969,-0.074951172,0.964355469,26:32.0,00:09.7
77,78,78,19.28500667,-99.14054133,0.134521484,0.0859375,0.898925781,26:32.0,00:09.8
78,79,79,19.28500667,-99.14054133,0.118896484,0.082519531,0.801513672,26:32.0,00:09.8
79,80,80,19.28500667,-99.14054133,0.137695313,0.027832031,0.867919922,26:32.1,00:09.8
80,81,81,19.28500667,-99.14054133,0.136230469,0.009277344,0.813232422,26:32.1,00:09.8
81,82,82,19.28493433,-99.14054433,0.084228516,-0.029541016,1.024169922,26:32.1,00:09.8
82,83,83,19.28493433,-99.14054433,0.007324219,-0.025634766,0.934326172,26:32.1,00:09.8
83,84,84,19.28493433,-99.14054433,0.031982422,0.006835938,1.005859375,26:32.1,00:09.8
84,85,85,19.28493433,-99.14054433,0.102539063,0.043212891,0.818115234,26:32.1,00:09.9
65,66,66,19.28506867,-99.14053583,0.172119141,0.014892578,0.882568359,26:29.9,00:07.6
66,67,67,19.28506867,-99.14053583,0.136474609,0.016357422,0.927246094,26:29.9,00:07.7
67,68,68,19.28506867,-99.14053583,0.113769531,0.061523438,0.897216797,26:30.0,00:07.7
68,69,69,19.28506867,-99.14053583,0.442626953,-0.112060547,0.819335938,26:30.1,00:07.8
69,70,70,19.28506867,-99.14053583,0.117675781,-0.140380859,0.787353516,26:30.2,00:07.9
70,71,71,19.28506867,-99.14053583,-0.158203125,-0.004394531,0.9296875,26:30.2,00:08.0
71,72,72,19.28506867,-99.14053583,-0.746582031,0.704589844,1.380615234,26:30.3,00:08.0
72,73,73,19.28500667,-99.14054133,0.247070313,0.143554688,0.92578125,26:30.8,00:08.5
73,74,74,19.28500667,-99.14054133,0.200683594,-0.040527344,0.787109375,26:30.8,00:08.5
74,75,75,19.28500667,-99.14054133,0.184082031,0.096679688,0.780273438,26:30.9,00:08.6
75,76,76,19.28500667,-99.14054133,0.072021484,-0.066894531,0.958007813,26:32.0,00:09.7
76,77,77,19.28500667,-99.14054133,0.128417969,-0.074951172,0.964355469,26:32.0,00:09.7
77,78,78,19.28500667,-99.14054133,0.134521484,0.0859375,0.898925781,26:32.0,00:09.8
78,79,79,19.28500667,-99.14054133,0.118896484,0.082519531,0.801513672,26:32.0,00:09.8
79,80,80,19.28500667,-99.14054133,0.137695313,0.027832031,0.867919922,26:32.1,00:09.8
80,81,81,19.28500667,-99.14054133,0.136230469,0.009277344,0.813232422,26:32.1,00:09.8
81,82,82,19.28493433,-99.14054433,0.084228516,-0.029541016,1.024169922,26:32.1,00:09.8
82,83,83,19.28493433,-99.14054433,0.007324219,-0.025634766,0.934326172,26:32.1,00:09.8
83,84,84,19.28493433,-99.14054433,0.031982422,0.006835938,1.005859375,26:32.1,00:09.8
84,85,85,19.28493433,-99.14054433,0.102539063,0.043212891,0.818115234,26:32.1,00:09.9
65,66,66,19.28506867,-99.14053583,0.172119141,0.014892578,0.882568359,26:29.9,00:07.6
66,67,67,19.28506867,-99.14053583,0.136474609,0.016357422,0.927246094,26:29.9,00:07.7
67,68,68,19.28506867,-99.14053583,0.113769531,0.061523438,0.897216797,26:30.0,00:07.7
68,69,69,19.28506867,-99.14053583,0.442626953,-0.112060547,0.819335938,26:30.1,00:07.8
69,70,70,19.28506867,-99.14053583,0.117675781,-0.140380859,0.787353516,26:30.2,00:07.9
70,71,71,19.28506867,-99.14053583,-0.158203125,-0.004394531,0.9296875,26:30.2,00:08.0
71,72,72,19.28506867,-99.14053583,-0.746582031,0.704589844,1.380615234,26:30.3,00:08.0
72,73,73,19.28500667,-99.14054133,0.247070313,0.143554688,0.92578125,26:30.8,00:08.5
73,74,74,19.28500667,-99.14054133,0.200683594,-0.040527344,0.787109375,26:30.8,00:08.5
74,75,75,19.28500667,-99.14054133,0.184082031,0.096679688,0.780273438,26:30.9,00:08.6
75,76,76,19.28500667,-99.14054133,0.072021484,-0.066894531,0.958007813,26:32.0,00:09.7
76,77,77,19.28500667,-99.14054133,0.128417969,-0.074951172,0.964355469,26:32.0,00:09.7
77,78,78,19.28500667,-99.14054133,0.134521484,0.0859375,0.898925781,26:32.0,00:09.8
78,79,79,19.28500667,-99.14054133,0.118896484,0.082519531,0.801513672,26:32.0,00:09.8
79,80,80,19.28500667,-99.14054133,0.137695313,0.027832031,0.867919922,26:32.1,00:09.8
80,81,81,19.28500667,-99.14054133,0.136230469,0.009277344,0.813232422,26:32.1,00:09.8
81,82,82,19.28493433,-99.14054433,0.084228516,-0.029541016,1.024169922,26:32.1,00:09.8
82,83,83,19.28493433,-99.14054433,0.007324219,-0.025634766,0.934326172,26:32.1,00:09.8
83,84,84,19.28493433,-99.14054433,0.031982422,0.006835938,1.005859375,26:32.1,00:09.8
84,85,85,19.28493433,-99.14054433,0.102539063,0.043212891,0.818115234,26:32.1,00:09.9
65,66,66,19.28506867,-99.14053583,0.172119141,0.014892578,0.882568359,26:29.9,00:07.6
66,67,67,19.28506867,-99.14053583,0.136474609,0.016357422,0.927246094,26:29.9,00:07.7
67,68,68,19.28506867,-99.14053583,0.113769531,0.061523438,0.897216797,26:30.0,00:07.7
68,69,69,19.28506867,-99.14053583,0.442626953,-0.112060547,0.819335938,26:30.1,00:07.8
69,70,70,19.28506867,-99.14053583,0.117675781,-0.140380859,0.787353516,26:30.2,00:07.9
70,71,71,19.28506867,-99.14053583,-0.158203125,-0.004394531,0.9296875,26:30.2,00:08.0
71,72,72,19.28506867,-99.14053583,-0.746582031,0.704589844,1.380615234,26:30.3,00:08.0
72,73,73,19.28500667,-99.14054133,0.247070313,0.143554688,0.92578125,26:30.8,00:08.5
73,74,74,19.28500667,-99.14054133,0.200683594,-0.040527344,0.787109375,26:30.8,00:08.5
74,75,75,19.28500667,-99.14054133,0.184082031,0.096679688,0.780273438,26:30.9,00:08.6
75,76,76,19.28500667,-99.14054133,0.072021484,-0.066894531,0.958007813,26:32.0,00:09.7
76,77,77,19.28500667,-99.14054133,0.128417969,-0.074951172,0.964355469,26:32.0,00:09.7
77,78,78,19.28500667,-99.14054133,0.134521484,0.0859375,0.898925781,26:32.0,00:09.8
78,79,79,19.28500667,-99.14054133,0.118896484,0.082519531,0.801513672,26:32.0,00:09.8
79,80,80,19.28500667,-99.14054133,0.137695313,0.027832031,0.867919922,26:32.1,00:09.8
80,81,81,19.28500667,-99.14054133,0.136230469,0.009277344,0.813232422,26:32.1,00:09.8
81,82,82,19.28493433,-99.14054433,0.084228516,-0.029541016,1.024169922,26:32.1,00:09.8
82,83,83,19.28493433,-99.14054433,0.007324219,-0.025634766,0.934326172,26:32.1,00:09.8
83,84,84,19.28493433,-99.14054433,0.031982422,0.006835938,1.005859375,26:32.1,00:09.8
84,85,85,19.28493433,-99.14054433,0.102539063,0.043212891,0.818115234,26:32.1,00:09.9
65,66,66,19.28506867,-99.14053583,0.172119141,0.014892578,0.882568359,26:29.9,00:07.6
66,67,67,19.28506867,-99.14053583,0.136474609,0.016357422,0.927246094,26:29.9,00:07.7
67,68,68,19.28506867,-99.14053583,0.113769531,0.061523438,0.897216797,26:30.0,00:07.7
68,69,69,19.28506867,-99.14053583,0.442626953,-0.112060547,0.819335938,26:30.1,00:07.8
69,70,70,19.28506867,-99.14053583,0.117675781,-0.140380859,0.787353516,26:30.2,00:07.9
70,71,71,19.28506867,-99.14053583,-0.158203125,-0.004394531,0.9296875,26:30.2,00:08.0
71,72,72,19.28506867,-99.14053583,-0.746582031,0.704589844,1.380615234,26:30.3,00:08.0
72,73,73,19.28500667,-99.14054133,0.247070313,0.143554688,0.92578125,26:30.8,00:08.5
73,74,74,19.28500667,-99.14054133,0.200683594,-0.040527344,0.787109375,26:30.8,00:08.5
74,75,75,19.28500667,-99.14054133,0.184082031,0.096679688,0.780273438,26:30.9,00:08.6
75,76,76,19.28500667,-99.14054133,0.072021484,-0.066894531,0.958007813,26:32.0,00:09.7
76,77,77,19.28500667,-99.14054133,0.128417969,-0.074951172,0.964355469,26:32.0,00:09.7
77,78,78,19.28500667,-99.14054133,0.134521484,0.0859375,0.898925781,26:32.0,00:09.8
78,79,79,19.28500667,-99.14054133,0.118896484,0.082519531,0.801513672,26:32.0,00:09.8
79,80,80,19.28500667,-99.14054133,0.137695313,0.027832031,0.867919922,26:32.1,00:09.8
80,81,81,19.28500667,-99.14054133,0.136230469,0.009277344,0.813232422,26:32.1,00:09.8
81,82,82,19.28493433,-99.14054433,0.084228516,-0.029541016,1.024169922,26:32.1,00:09.8
82,83,83,19.28493433,-99.14054433,0.007324219,-0.025634766,0.934326172,26:32.1,00:09.8
83,84,84,19.28493433,-99.14054433,0.031982422,0.006835938,1.005859375,26:32.1,00:09.8
84,85,85,19.28493433,-99.14054433,0.102539063,0.043212891,0.818115234,26:32.1,00:09.9
65,66,66,19.28506867,-99.14053583,0.172119141,0.014892578,0.882568359,26:29.9,00:07.6
66,67,67,19.28506867,-99.14053583,0.136474609,0.016357422,0.927246094,26:29.9,00:07.7
67,68,68,19.28506867,-99.14053583,0.113769531,0.061523438,0.897216797,26:30.0,00:07.7
68,69,69,19.28506867,-99.14053583,0.442626953,-0.112060547,0.819335938,26:30.1,00:07.8
69,70,70,19.28506867,-99.14053583,0.117675781,-0.140380859,0.787353516,26:30.2,00:07.9
70,71,71,19.28506867,-99.14053583,-0.158203125,-0.004394531,0.9296875,26:30.2,00:08.0
71,72,72,19.28506867,-99.14053583,-0.746582031,0.704589844,1.380615234,26:30.3,00:08.0
72,73,73,19.28500667,-99.14054133,0.247070313,0.143554688,0.92578125,26:30.8,00:08.5
73,74,74,19.28500667,-99.14054133,0.200683594,-0.040527344,0.787109375,26:30.8,00:08.5
74,75,75,19.28500667,-99.14054133,0.184082031,0.096679688,0.780273438,26:30.9,00:08.6
75,76,76,19.28500667,-99.14054133,0.072021484,-0.066894531,0.958007813,26:32.0,00:09.7
76,77,77,19.28500667,-99.14054133,0.128417969,-0.074951172,0.964355469,26:32.0,00:09.7
77,78,78,19.28500667,-99.14054133,0.134521484,0.0859375,0.898925781,26:32.0,00:09.8
78,79,79,19.28500667,-99.14054133,0.118896484,0.082519531,0.801513672,26:32.0,00:09.8
79,80,80,19.28500667,-99.14054133,0.137695313,0.027832031,0.867919922,26:32.1,00:09.8
80,81,81,19.28500667,-99.14054133,0.136230469,0.009277344,0.813232422,26:32.1,00:09.8
81,82,82,19.28493433,-99.14054433,0.084228516,-0.029541016,1.024169922,26:32.1,00:09.8
82,83,83,19.28493433,-99.14054433,0.007324219,-0.025634766,0.934326172,26:32.1,00:09.8
83,84,84,19.28493433,-99.14054433,0.031982422,0.006835938,1.005859375,26:32.1,00:09.8
84,85,85,19.28493433,-99.14054433,0.102539063,0.043212891,0.818115234,26:32.1,00:09.9
65,66,66,19.28506867,-99.14053583,0.172119141,0.014892578,0.882568359,26:29.9,00:07.6
66,67,67,19.28506867,-99.14053583,0.136474609,0.016357422,0.927246094,26:29.9,00:07.7
67,68,68,19.28506867,-99.14053583,0.113769531,0.061523438,0.897216797,26:30.0,00:07.7
68,69,69,19.28506867,-99.14053583,0.442626953,-0.112060547,0.819335938,26:30.1,00:07.8
69,70,70,19.28506867,-99.14053583,0.117675781,-0.140380859,0.787353516,26:30.2,00:07.9
70,71,71,19.28506867,-99.14053583,-0.158203125,-0.004394531,0.9296875,26:30.2,00:08.0
71,72,72,19.28506867,-99.14053583,-0.746582031,0.704589844,1.380615234,26:30.3,00:08.0
72,73,73,19.28500667,-99.14054133,0.247070313,0.143554688,0.92578125,26:30.8,00:08.5
73,74,74,19.28500667,-99.14054133,0.200683594,-0.040527344,0.787109375,26:30.8,00:08.5
74,75,75,19.28500667,-99.14054133,0.184082031,0.096679688,0.780273438,26:30.9,00:08.6
75,76,76,19.28500667,-99.14054133,0.072021484,-0.066894531,0.958007813,26:32.0,00:09.7
76,77,77,19.28500667,-99.14054133,0.128417969,-0.074951172,0.964355469,26:32.0,00:09.7
77,78,78,19.28500667,-99.14054133,0.134521484,0.0859375,0.898925781,26:32.0,00:09.8
78,79,79,19.28500667,-99.14054133,0.118896484,0.082519531,0.801513672,26:32.0,00:09.8
79,80,80,19.28500667,-99.14054133,0.137695313,0.027832031,0.867919922,26:32.1,00:09.8
80,81,81,19.28500667,-99.14054133,0.136230469,0.009277344,0.813232422,26:32.1,00:09.8
81,82,82,19.28493433,-99.14054433,0.084228516,-0.029541016,1.024169922,26:32.1,00:09.8
82,83,83,19.28493433,-99.14054433,0.007324219,-0.025634766,0.934326172,26:32.1,00:09.8
83,84,84,19.28493433,-99.14054433,0.031982422,0.006835938,1.005859375,26:32.1,00:09.8
84,85,85,19.28493433,-99.14054433,0.102539063,0.043212891,0.818115234,26:32.1,00:09.9
408,409,409,19.28521183,-99.140531,0.099609375,0.109375,0.952880859,57:47.2,00:46.0
409,410,410,19.28521183,-99.140531,0.151611328,0.089111328,0.911376953,57:47.2,00:46.0
410,411,411,19.28521183,-99.140531,0.142333984,0.076660156,0.884521484,57:47.2,00:46.0
411,412,412,19.28521183,-99.140531,0.150390625,0.07421875,0.889648438,57:47.2,00:46.0
412,413,413,19.28521183,-99.140531,0.169189453,0.091796875,0.967529297,57:47.2,00:46.0
413,414,414,19.28521183,-99.140531,0.166992188,0.083984375,0.859375,57:47.2,00:46.1
414,415,415,19.28516433,-99.14053233,0.139404297,0.092041016,0.895507813,57:47.3,00:46.1
415,416,416,19.28516433,-99.14053233,0.149414063,0.092041016,0.923583984,57:47.3,00:46.1
416,417,417,19.28516433,-99.14053233,0.131835938,0.12109375,0.948974609,57:47.3,00:46.1
417,418,418,19.28516433,-99.14053233,0.101318359,0.067382813,0.960205078,57:47.4,00:46.2
418,419,419,19.28516433,-99.14053233,0.066650391,0.139648438,0.96484375,57:47.5,00:46.3
419,420,420,19.28516433,-99.14053233,0.067138672,0.089599609,0.920898438,57:47.6,00:46.4
420,421,421,19.28516433,-99.14053233,0.081054688,0.073242188,0.892578125,57:47.6,00:46.4
421,422,422,19.28516433,-99.14053233,0.139892578,0.109375,0.845458984,57:47.7,00:46.5
422,423,423,19.28516433,-99.14053233,0.117919922,0.072509766,0.8828125,57:47.7,00:46.5
423,424,424,19.28511767,-99.1405335,0.118896484,0.083496094,0.914794922,57:48.2,00:47.0
424,425,425,19.28511767,-99.1405335,0.041503906,0.070068359,0.931396484,57:48.3,00:47.1
425,426,426,19.28511767,-99.1405335,0.07421875,0.037353516,0.94921875,57:51.0,00:49.8
426,427,427,19.28511767,-99.1405335,0.049072266,-0.053955078,0.983886719,57:51.0,00:49.9
427,428,428,19.28511767,-99.1405335,0.129394531,-0.005126953,1.009033203,57:51.1,00:49.9
428,429,429,19.28511767,-99.1405335,0.064208984,0.030273438,0.969482422,57:51.1,00:49.9
429,430,430,19.28511767,-99.1405335,-0.257324219,0.063720703,1.182617188,57:51.1,00:49.9
430,431,431,19.28511767,-99.1405335,-0.505859375,-0.018066406,1.423828125,57:51.1,00:49.9
431,432,432,19.28511767,-99.1405335,-0.533935547,-0.33984375,1.370117188,57:51.1,00:49.9
432,433,433,19.28507433,-99.1405445,-0.604980469,-0.250244141,1.224609375,57:51.2,00:50.0
433,434,434,19.28507433,-99.1405445,-0.574462891,-0.0546875,1.233398438,57:51.2,00:50.0
434,435,435,19.28507433,-99.1405445,-0.314453125,0.027587891,1.112304688,57:51.2,00:50.0
435,436,436,19.28507433,-99.1405445,-0.239013672,-0.068115234,1.116455078,57:51.2,00:50.0
436,437,437,19.28507433,-99.1405445,-0.117675781,0.015136719,0.9296875,57:51.2,00:50.0
437,438,438,19.28507433,-99.1405445,0.058349609,0.017333984,0.964111328,57:51.2,00:50.0
438,439,439,19.28507433,-99.1405445,-0.000244141,0.139892578,0.859130859,57:51.3,00:50.1
439,440,440,19.28507433,-99.1405445,0.013916016,0.16796875,0.973632813,57:51.3,00:50.1
440,441,441,19.28507433,-99.1405445,0.084960938,0.171386719,0.787353516,57:51.3,00:50.1
441,442,442,19.28503083,-99.14054583,0.195800781,0.222167969,0.816894531,57:51.3,00:50.1
442,443,443,19.28503083,-99.14054583,0.245117188,0.169433594,0.834960938,57:51.3,00:50.1
443,444,444,19.28503083,-99.14054583,0.341308594,0.263916016,0.772705078,57:51.3,00:50.1
444,445,445,19.28503083,-99.14054583,0.448486328,0.291259766,0.811767578,57:51.4,00:50.2
445,446,446,19.28503083,-99.14054583,0.345703125,0.19921875,0.818603516,57:51.4,00:50.2
446,447,447,19.28503083,-99.14054583,0.383789063,0.133056641,0.764892578,57:51.4,00:50.2
447,448,448,19.28503083,-99.14054583,0.356689453,0.079345703,0.788574219,57:51.4,00:50.2
448,449,449,19.28503083,-99.14054583,0.313232422,0.086425781,0.801513672,57:51.4,00:50.2
449,450,450,19.28503083,-99.14054583,0.313964844,0.076904297,0.757080078,57:51.5,00:50.3
450,451,451,19.28498817,-99.1405465,0.129394531,0.042236328,0.944091797,57:53.3,00:52.1
451,452,452,19.28498817,-99.1405465,0.053955078,0.076171875,0.895751953,57:53.3,00:52.1
452,453,453,19.28498817,-99.1405465,0.026367188,0.083496094,0.928466797,57:53.3,00:52.2
453,454,454,19.28498817,-99.1405465,0.026611328,0.055419922,0.869384766,57:53.4,00:52.2
454,455,455,19.28498817,-99.1405465,0.053222656,0.027099609,0.927734375,57:53.4,00:52.2
455,456,456,19.28498817,-99.1405465,0.111083984,0.012695313,0.931396484,57:53.4,00:52.2
456,457,457,19.28498817,-99.1405465,0.136474609,-0.001708984,0.907226563,57:53.4,00:52.2
457,458,458,19.28498817,-99.1405465,0.063476563,0.056884766,0.959716797,57:53.4,00:52.3
408,409,409,19.28521183,-99.140531,0.099609375,0.109375,0.952880859,57:47.2,00:46.0
409,410,410,19.28521183,-99.140531,0.151611328,0.089111328,0.911376953,57:47.2,00:46.0
410,411,411,19.28521183,-99.140531,0.142333984,0.076660156,0.884521484,57:47.2,00:46.0
411,412,412,19.28521183,-99.140531,0.150390625,0.07421875,0.889648438,57:47.2,00:46.0
412,413,413,19.28521183,-99.140531,0.169189453,0.091796875,0.967529297,57:47.2,00:46.0
413,414,414,19.28521183,-99.140531,0.166992188,0.083984375,0.859375,57:47.2,00:46.1
414,415,415,19.28516433,-99.14053233,0.139404297,0.092041016,0.895507813,57:47.3,00:46.1
415,416,416,19.28516433,-99.14053233,0.149414063,0.092041016,0.923583984,57:47.3,00:46.1
416,417,417,19.28516433,-99.14053233,0.131835938,0.12109375,0.948974609,57:47.3,00:46.1
417,418,418,19.28516433,-99.14053233,0.101318359,0.067382813,0.960205078,57:47.4,00:46.2
418,419,419,19.28516433,-99.14053233,0.066650391,0.139648438,0.96484375,57:47.5,00:46.3
419,420,420,19.28516433,-99.14053233,0.067138672,0.089599609,0.920898438,57:47.6,00:46.4
420,421,421,19.28516433,-99.14053233,0.081054688,0.073242188,0.892578125,57:47.6,00:46.4
421,422,422,19.28516433,-99.14053233,0.139892578,0.109375,0.845458984,57:47.7,00:46.5
422,423,423,19.28516433,-99.14053233,0.117919922,0.072509766,0.8828125,57:47.7,00:46.5
423,424,424,19.28511767,-99.1405335,0.118896484,0.083496094,0.914794922,57:48.2,00:47.0
424,425,425,19.28511767,-99.1405335,0.041503906,0.070068359,0.931396484,57:48.3,00:47.1
425,426,426,19.28511767,-99.1405335,0.07421875,0.037353516,0.94921875,57:51.0,00:49.8
426,427,427,19.28511767,-99.1405335,0.049072266,-0.053955078,0.983886719,57:51.0,00:49.9
427,428,428,19.28511767,-99.1405335,0.129394531,-0.005126953,1.009033203,57:51.1,00:49.9
428,429,429,19.28511767,-99.1405335,0.064208984,0.030273438,0.969482422,57:51.1,00:49.9
429,430,430,19.28511767,-99.1405335,-0.257324219,0.063720703,1.182617188,57:51.1,00:49.9
430,431,431,19.28511767,-99.1405335,-0.505859375,-0.018066406,1.423828125,57:51.1,00:49.9
431,432,432,19.28511767,-99.1405335,-0.533935547,-0.33984375,1.370117188,57:51.1,00:49.9
432,433,433,19.28507433,-99.1405445,-0.604980469,-0.250244141,1.224609375,57:51.2,00:50.0
433,434,434,19.28507433,-99.1405445,-0.574462891,-0.0546875,1.233398438,57:51.2,00:50.0
434,435,435,19.28507433,-99.1405445,-0.314453125,0.027587891,1.112304688,57:51.2,00:50.0
435,436,436,19.28507433,-99.1405445,-0.239013672,-0.068115234,1.116455078,57:51.2,00:50.0
436,437,437,19.28507433,-99.1405445,-0.117675781,0.015136719,0.9296875,57:51.2,00:50.0
437,438,438,19.28507433,-99.1405445,0.058349609,0.017333984,0.964111328,57:51.2,00:50.0
438,439,439,19.28507433,-99.1405445,-0.000244141,0.139892578,0.859130859,57:51.3,00:50.1
439,440,440,19.28507433,-99.1405445,0.013916016,0.16796875,0.973632813,57:51.3,00:50.1
440,441,441,19.28507433,-99.1405445,0.084960938,0.171386719,0.787353516,57:51.3,00:50.1
441,442,442,19.28503083,-99.14054583,0.195800781,0.222167969,0.816894531,57:51.3,00:50.1
442,443,443,19.28503083,-99.14054583,0.245117188,0.169433594,0.834960938,57:51.3,00:50.1
443,444,444,19.28503083,-99.14054583,0.341308594,0.263916016,0.772705078,57:51.3,00:50.1
444,445,445,19.28503083,-99.14054583,0.448486328,0.291259766,0.811767578,57:51.4,00:50.2
445,446,446,19.28503083,-99.14054583,0.345703125,0.19921875,0.818603516,57:51.4,00:50.2
446,447,447,19.28503083,-99.14054583,0.383789063,0.133056641,0.764892578,57:51.4,00:50.2
447,448,448,19.28503083,-99.14054583,0.356689453,0.079345703,0.788574219,57:51.4,00:50.2
448,449,449,19.28503083,-99.14054583,0.313232422,0.086425781,0.801513672,57:51.4,00:50.2
449,450,450,19.28503083,-99.14054583,0.313964844,0.076904297,0.757080078,57:51.5,00:50.3
450,451,451,19.28498817,-99.1405465,0.129394531,0.042236328,0.944091797,57:53.3,00:52.1
451,452,452,19.28498817,-99.1405465,0.053955078,0.076171875,0.895751953,57:53.3,00:52.1
452,453,453,19.28498817,-99.1405465,0.026367188,0.083496094,0.928466797,57:53.3,00:52.2
453,454,454,19.28498817,-99.1405465,0.026611328,0.055419922,0.869384766,57:53.4,00:52.2
454,455,455,19.28498817,-99.1405465,0.053222656,0.027099609,0.927734375,57:53.4,00:52.2
455,456,456,19.28498817,-99.1405465,0.111083984,0.012695313,0.931396484,57:53.4,00:52.2
456,457,457,19.28498817,-99.1405465,0.136474609,-0.001708984,0.907226563,57:53.4,00:52.2
457,458,458,19.28498817,-99.1405465,0.063476563,0.056884766,0.959716797,57:53.4,00:52.3
408,409,409,19.28521183,-99.140531,0.099609375,0.109375,0.952880859,57:47.2,00:46.0
409,410,410,19.28521183,-99.140531,0.151611328,0.089111328,0.911376953,57:47.2,00:46.0
410,411,411,19.28521183,-99.140531,0.142333984,0.076660156,0.884521484,57:47.2,00:46.0
411,412,412,19.28521183,-99.140531,0.150390625,0.07421875,0.889648438,57:47.2,00:46.0
412,413,413,19.28521183,-99.140531,0.169189453,0.091796875,0.967529297,57:47.2,00:46.0
413,414,414,19.28521183,-99.140531,0.166992188,0.083984375,0.859375,57:47.2,00:46.1
414,415,415,19.28516433,-99.14053233,0.139404297,0.092041016,0.895507813,57:47.3,00:46.1
415,416,416,19.28516433,-99.14053233,0.149414063,0.092041016,0.923583984,57:47.3,00:46.1
416,417,417,19.28516433,-99.14053233,0.131835938,0.12109375,0.948974609,57:47.3,00:46.1
417,418,418,19.28516433,-99.14053233,0.101318359,0.067382813,0.960205078,57:47.4,00:46.2
418,419,419,19.28516433,-99.14053233,0.066650391,0.139648438,0.96484375,57:47.5,00:46.3
419,420,420,19.28516433,-99.14053233,0.067138672,0.089599609,0.920898438,57:47.6,00:46.4
420,421,421,19.28516433,-99.14053233,0.081054688,0.073242188,0.892578125,57:47.6,00:46.4
421,422,422,19.28516433,-99.14053233,0.139892578,0.109375,0.845458984,57:47.7,00:46.5
422,423,423,19.28516433,-99.14053233,0.117919922,0.072509766,0.8828125,57:47.7,00:46.5
423,424,424,19.28511767,-99.1405335,0.118896484,0.083496094,0.914794922,57:48.2,00:47.0
424,425,425,19.28511767,-99.1405335,0.041503906,0.070068359,0.931396484,57:48.3,00:47.1
425,426,426,19.28511767,-99.1405335,0.07421875,0.037353516,0.94921875,57:51.0,00:49.8
426,427,427,19.28511767,-99.1405335,0.049072266,-0.053955078,0.983886719,57:51.0,00:49.9
427,428,428,19.28511767,-99.1405335,0.129394531,-0.005126953,1.009033203,57:51.1,00:49.9
428,429,429,19.28511767,-99.1405335,0.064208984,0.030273438,0.969482422,57:51.1,00:49.9
429,430,430,19.28511767,-99.1405335,-0.257324219,0.063720703,1.182617188,57:51.1,00:49.9
430,431,431,19.28511767,-99.1405335,-0.505859375,-0.018066406,1.423828125,57:51.1,00:49.9
431,432,432,19.28511767,-99.1405335,-0.533935547,-0.33984375,1.370117188,57:51.1,00:49.9
432,433,433,19.28507433,-99.1405445,-0.604980469,-0.250244141,1.224609375,57:51.2,00:50.0
433,434,434,19.28507433,-99.1405445,-0.574462891,-0.0546875,1.233398438,57:51.2,00:50.0
434,435,435,19.28507433,-99.1405445,-0.314453125,0.027587891,1.112304688,57:51.2,00:50.0
435,436,436,19.28507433,-99.1405445,-0.239013672,-0.068115234,1.116455078,57:51.2,00:50.0
436,437,437,19.28507433,-99.1405445,-0.117675781,0.015136719,0.9296875,57:51.2,00:50.0
437,438,438,19.28507433,-99.1405445,0.058349609,0.017333984,0.964111328,57:51.2,00:50.0
438,439,439,19.28507433,-99.1405445,-0.000244141,0.139892578,0.859130859,57:51.3,00:50.1
439,440,440,19.28507433,-99.1405445,0.013916016,0.16796875,0.973632813,57:51.3,00:50.1
440,441,441,19.28507433,-99.1405445,0.084960938,0.171386719,0.787353516,57:51.3,00:50.1
441,442,442,19.28503083,-99.14054583,0.195800781,0.222167969,0.816894531,57:51.3,00:50.1
442,443,443,19.28503083,-99.14054583,0.245117188,0.169433594,0.834960938,57:51.3,00:50.1
443,444,444,19.28503083,-99.14054583,0.341308594,0.263916016,0.772705078,57:51.3,00:50.1
444,445,445,19.28503083,-99.14054583,0.448486328,0.291259766,0.811767578,57:51.4,00:50.2
445,446,446,19.28503083,-99.14054583,0.345703125,0.19921875,0.818603516,57:51.4,00:50.2
446,447,447,19.28503083,-99.14054583,0.383789063,0.133056641,0.764892578,57:51.4,00:50.2
447,448,448,19.28503083,-99.14054583,0.356689453,0.079345703,0.788574219,57:51.4,00:50.2
448,449,449,19.28503083,-99.14054583,0.313232422,0.086425781,0.801513672,57:51.4,00:50.2
449,450,450,19.28503083,-99.14054583,0.313964844,0.076904297,0.757080078,57:51.5,00:50.3
450,451,451,19.28498817,-99.1405465,0.129394531,0.042236328,0.944091797,57:53.3,00:52.1
451,452,452,19.28498817,-99.1405465,0.053955078,0.076171875,0.895751953,57:53.3,00:52.1
452,453,453,19.28498817,-99.1405465,0.026367188,0.083496094,0.928466797,57:53.3,00:52.2
453,454,454,19.28498817,-99.1405465,0.026611328,0.055419922,0.869384766,57:53.4,00:52.2
454,455,455,19.28498817,-99.1405465,0.053222656,0.027099609,0.927734375,57:53.4,00:52.2
455,456,456,19.28498817,-99.1405465,0.111083984,0.012695313,0.931396484,57:53.4,00:52.2
456,457,457,19.28498817,-99.1405465,0.136474609,-0.001708984,0.907226563,57:53.4,00:52.2
457,458,458,19.28498817,-99.1405465,0.063476563,0.056884766,0.959716797,57:53.4,00:52.3
408,409,409,19.28521183,-99.140531,0.099609375,0.109375,0.952880859,57:47.2,00:46.0
409,410,410,19.28521183,-99.140531,0.151611328,0.089111328,0.911376953,57:47.2,00:46.0
410,411,411,19.28521183,-99.140531,0.142333984,0.076660156,0.884521484,57:47.2,00:46.0
411,412,412,19.28521183,-99.140531,0.150390625,0.07421875,0.889648438,57:47.2,00:46.0
412,413,413,19.28521183,-99.140531,0.169189453,0.091796875,0.967529297,57:47.2,00:46.0
413,414,414,19.28521183,-99.140531,0.166992188,0.083984375,0.859375,57:47.2,00:46.1
414,415,415,19.28516433,-99.14053233,0.139404297,0.092041016,0.895507813,57:47.3,00:46.1
415,416,416,19.28516433,-99.14053233,0.149414063,0.092041016,0.923583984,57:47.3,00:46.1
416,417,417,19.28516433,-99.14053233,0.131835938,0.12109375,0.948974609,57:47.3,00:46.1
417,418,418,19.28516433,-99.14053233,0.101318359,0.067382813,0.960205078,57:47.4,00:46.2
418,419,419,19.28516433,-99.14053233,0.066650391,0.139648438,0.96484375,57:47.5,00:46.3
419,420,420,19.28516433,-99.14053233,0.067138672,0.089599609,0.920898438,57:47.6,00:46.4
420,421,421,19.28516433,-99.14053233,0.081054688,0.073242188,0.892578125,57:47.6,00:46.4
421,422,422,19.28516433,-99.14053233,0.139892578,0.109375,0.845458984,57:47.7,00:46.5
422,423,423,19.28516433,-99.14053233,0.117919922,0.072509766,0.8828125,57:47.7,00:46.5
423,424,424,19.28511767,-99.1405335,0.118896484,0.083496094,0.914794922,57:48.2,00:47.0
424,425,425,19.28511767,-99.1405335,0.041503906,0.070068359,0.931396484,57:48.3,00:47.1
425,426,426,19.28511767,-99.1405335,0.07421875,0.037353516,0.94921875,57:51.0,00:49.8
426,427,427,19.28511767,-99.1405335,0.049072266,-0.053955078,0.983886719,57:51.0,00:49.9
427,428,428,19.28511767,-99.1405335,0.129394531,-0.005126953,1.009033203,57:51.1,00:49.9
428,429,429,19.28511767,-99.1405335,0.064208984,0.030273438,0.969482422,57:51.1,00:49.9
429,430,430,19.28511767,-99.1405335,-0.257324219,0.063720703,1.182617188,57:51.1,00:49.9
430,431,431,19.28511767,-99.1405335,-0.505859375,-0.018066406,1.423828125,57:51.1,00:49.9
431,432,432,19.28511767,-99.1405335,-0.533935547,-0.33984375,1.370117188,57:51.1,00:49.9
432,433,433,19.28507433,-99.1405445,-0.604980469,-0.250244141,1.224609375,57:51.2,00:50.0
433,434,434,19.28507433,-99.1405445,-0.574462891,-0.0546875,1.233398438,57:51.2,00:50.0
434,435,435,19.28507433,-99.1405445,-0.314453125,0.027587891,1.112304688,57:51.2,00:50.0
435,436,436,19.28507433,-99.1405445,-0.239013672,-0.068115234,1.116455078,57:51.2,00:50.0
436,437,437,19.28507433,-99.1405445,-0.117675781,0.015136719,0.9296875,57:51.2,00:50.0
437,438,438,19.28507433,-99.1405445,0.058349609,0.017333984,0.964111328,57:51.2,00:50.0
438,439,439,19.28507433,-99.1405445,-0.000244141,0.139892578,0.859130859,57:51.3,00:50.1
439,440,440,19.28507433,-99.1405445,0.013916016,0.16796875,0.973632813,57:51.3,00:50.1
440,441,441,19.28507433,-99.1405445,0.084960938,0.171386719,0.787353516,57:51.3,00:50.1
441,442,442,19.28503083,-99.14054583,0.195800781,0.222167969,0.816894531,57:51.3,00:50.1
442,443,443,19.28503083,-99.14054583,0.245117188,0.169433594,0.834960938,57:51.3,00:50.1
443,444,444,19.28503083,-99.14054583,0.341308594,0.263916016,0.772705078,57:51.3,00:50.1
444,445,445,19.28503083,-99.14054583,0.448486328,0.291259766,0.811767578,57:51.4,00:50.2
445,446,446,19.28503083,-99.14054583,0.345703125,0.19921875,0.818603516,57:51.4,00:50.2
446,447,447,19.28503083,-99.14054583,0.383789063,0.133056641,0.764892578,57:51.4,00:50.2
447,448,448,19.28503083,-99.14054583,0.356689453,0.079345703,0.788574219,57:51.4,00:50.2
448,449,449,19.28503083,-99.14054583,0.313232422,0.086425781,0.801513672,57:51.4,00:50.2
449,450,450,19.28503083,-99.14054583,0.313964844,0.076904297,0.757080078,57:51.5,00:50.3
450,451,451,19.28498817,-99.1405465,0.129394531,0.042236328,0.944091797,57:53.3,00:52.1
451,452,452,19.28498817,-99.1405465,0.053955078,0.076171875,0.895751953,57:53.3,00:52.1
452,453,453,19.28498817,-99.1405465,0.026367188,0.083496094,0.928466797,57:53.3,00:52.2
453,454,454,19.28498817,-99.1405465,0.026611328,0.055419922,0.869384766,57:53.4,00:52.2
454,455,455,19.28498817,-99.1405465,0.053222656,0.027099609,0.927734375,57:53.4,00:52.2
455,456,456,19.28498817,-99.1405465,0.111083984,0.012695313,0.931396484,57:53.4,00:52.2
456,457,457,19.28498817,-99.1405465,0.136474609,-0.001708984,0.907226563,57:53.4,00:52.2
457,458,458,19.28498817,-99.1405465,0.063476563,0.056884766,0.959716797,57:53.4,00:52.3
408,409,409,19.28521183,-99.140531,0.099609375,0.109375,0.952880859,57:47.2,00:46.0
409,410,410,19.28521183,-99.140531,0.151611328,0.089111328,0.911376953,57:47.2,00:46.0
410,411,411,19.28521183,-99.140531,0.142333984,0.076660156,0.884521484,57:47.2,00:46.0
411,412,412,19.28521183,-99.140531,0.150390625,0.07421875,0.889648438,57:47.2,00:46.0
412,413,413,19.28521183,-99.140531,0.169189453,0.091796875,0.967529297,57:47.2,00:46.0
413,414,414,19.28521183,-99.140531,0.166992188,0.083984375,0.859375,57:47.2,00:46.1
414,415,415,19.28516433,-99.14053233,0.139404297,0.092041016,0.895507813,57:47.3,00:46.1
415,416,416,19.28516433,-99.14053233,0.149414063,0.092041016,0.923583984,57:47.3,00:46.1
416,417,417,19.28516433,-99.14053233,0.131835938,0.12109375,0.948974609,57:47.3,00:46.1
417,418,418,19.28516433,-99.14053233,0.101318359,0.067382813,0.960205078,57:47.4,00:46.2
418,419,419,19.28516433,-99.14053233,0.066650391,0.139648438,0.96484375,57:47.5,00:46.3
419,420,420,19.28516433,-99.14053233,0.067138672,0.089599609,0.920898438,57:47.6,00:46.4
420,421,421,19.28516433,-99.14053233,0.081054688,0.073242188,0.892578125,57:47.6,00:46.4
421,422,422,19.28516433,-99.14053233,0.139892578,0.109375,0.845458984,57:47.7,00:46.5
422,423,423,19.28516433,-99.14053233,0.117919922,0.072509766,0.8828125,57:47.7,00:46.5
423,424,424,19.28511767,-99.1405335,0.118896484,0.083496094,0.914794922,57:48.2,00:47.0
424,425,425,19.28511767,-99.1405335,0.041503906,0.070068359,0.931396484,57:48.3,00:47.1
425,426,426,19.28511767,-99.1405335,0.07421875,0.037353516,0.94921875,57:51.0,00:49.8
426,427,427,19.28511767,-99.1405335,0.049072266,-0.053955078,0.983886719,57:51.0,00:49.9
427,428,428,19.28511767,-99.1405335,0.129394531,-0.005126953,1.009033203,57:51.1,00:49.9
428,429,429,19.28511767,-99.1405335,0.064208984,0.030273438,0.969482422,57:51.1,00:49.9
429,430,430,19.28511767,-99.1405335,-0.257324219,0.063720703,1.182617188,57:51.1,00:49.9
430,431,431,19.28511767,-99.1405335,-0.505859375,-0.018066406,1.423828125,57:51.1,00:49.9
431,432,432,19.28511767,-99.1405335,-0.533935547,-0.33984375,1.370117188,57:51.1,00:49.9
432,433,433,19.28507433,-99.1405445,-0.604980469,-0.250244141,1.224609375,57:51.2,00:50.0
433,434,434,19.28507433,-99.1405445,-0.574462891,-0.0546875,1.233398438,57:51.2,00:50.0
434,435,435,19.28507433,-99.1405445,-0.314453125,0.027587891,1.112304688,57:51.2,00:50.0
435,436,436,19.28507433,-99.1405445,-0.239013672,-0.068115234,1.116455078,57:51.2,00:50.0
436,437,437,19.28507433,-99.1405445,-0.117675781,0.015136719,0.9296875,57:51.2,00:50.0
437,438,438,19.28507433,-99.1405445,0.058349609,0.017333984,0.964111328,57:51.2,00:50.0
438,439,439,19.28507433,-99.1405445,-0.000244141,0.139892578,0.859130859,57:51.3,00:50.1
439,440,440,19.28507433,-99.1405445,0.013916016,0.16796875,0.973632813,57:51.3,00:50.1
440,441,441,19.28507433,-99.1405445,0.084960938,0.171386719,0.787353516,57:51.3,00:50.1
441,442,442,19.28503083,-99.14054583,0.195800781,0.222167969,0.816894531,57:51.3,00:50.1
442,443,443,19.28503083,-99.14054583,0.245117188,0.169433594,0.834960938,57:51.3,00:50.1
443,444,444,19.28503083,-99.14054583,0.341308594,0.263916016,0.772705078,57:51.3,00:50.1
444,445,445,19.28503083,-99.14054583,0.448486328,0.291259766,0.811767578,57:51.4,00:50.2
445,446,446,19.28503083,-99.14054583,0.345703125,0.19921875,0.818603516,57:51.4,00:50.2
446,447,447,19.28503083,-99.14054583,0.383789063,0.133056641,0.764892578,57:51.4,00:50.2
447,448,448,19.28503083,-99.14054583,0.356689453,0.079345703,0.788574219,57:51.4,00:50.2
448,449,449,19.28503083,-99.14054583,0.313232422,0.086425781,0.801513672,57:51.4,00:50.2
449,450,450,19.28503083,-99.14054583,0.313964844,0.076904297,0.757080078,57:51.5,00:50.3
450,451,451,19.28498817,-99.1405465,0.129394531,0.042236328,0.944091797,57:53.3,00:52.1
451,452,452,19.28498817,-99.1405465,0.053955078,0.076171875,0.895751953,57:53.3,00:52.1
452,453,453,19.28498817,-99.1405465,0.026367188,0.083496094,0.928466797,57:53.3,00:52.2
453,454,454,19.28498817,-99.1405465,0.026611328,0.055419922,0.869384766,57:53.4,00:52.2
454,455,455,19.28498817,-99.1405465,0.053222656,0.027099609,0.927734375,57:53.4,00:52.2
455,456,456,19.28498817,-99.1405465,0.111083984,0.012695313,0.931396484,57:53.4,00:52.2
456,457,457,19.28498817,-99.1405465,0.136474609,-0.001708984,0.907226563,57:53.4,00:52.2
457,458,458,19.28498817,-99.1405465,0.063476563,0.056884766,0.959716797,57:53.4,00:52.3
408,409,409,19.28521183,-99.140531,0.099609375,0.109375,0.952880859,57:47.2,00:46.0
409,410,410,19.28521183,-99.140531,0.151611328,0.089111328,0.911376953,57:47.2,00:46.0
410,411,411,19.28521183,-99.140531,0.142333984,0.076660156,0.884521484,57:47.2,00:46.0
411,412,412,19.28521183,-99.140531,0.150390625,0.07421875,0.889648438,57:47.2,00:46.0
412,413,413,19.28521183,-99.140531,0.169189453,0.091796875,0.967529297,57:47.2,00:46.0
413,414,414,19.28521183,-99.140531,0.166992188,0.083984375,0.859375,57:47.2,00:46.1
414,415,415,19.28516433,-99.14053233,0.139404297,0.092041016,0.895507813,57:47.3,00:46.1
415,416,416,19.28516433,-99.14053233,0.149414063,0.092041016,0.923583984,57:47.3,00:46.1
416,417,417,19.28516433,-99.14053233,0.131835938,0.12109375,0.948974609,57:47.3,00:46.1
417,418,418,19.28516433,-99.14053233,0.101318359,0.067382813,0.960205078,57:47.4,00:46.2
418,419,419,19.28516433,-99.14053233,0.066650391,0.139648438,0.96484375,57:47.5,00:46.3
419,420,420,19.28516433,-99.14053233,0.067138672,0.089599609,0.920898438,57:47.6,00:46.4
420,421,421,19.28516433,-99.14053233,0.081054688,0.073242188,0.892578125,57:47.6,00:46.4
421,422,422,19.28516433,-99.14053233,0.139892578,0.109375,0.845458984,57:47.7,00:46.5
422,423,423,19.28516433,-99.14053233,0.117919922,0.072509766,0.8828125,57:47.7,00:46.5
423,424,424,19.28511767,-99.1405335,0.118896484,0.083496094,0.914794922,57:48.2,00:47.0
424,425,425,19.28511767,-99.1405335,0.041503906,0.070068359,0.931396484,57:48.3,00:47.1
425,426,426,19.28511767,-99.1405335,0.07421875,0.037353516,0.94921875,57:51.0,00:49.8
426,427,427,19.28511767,-99.1405335,0.049072266,-0.053955078,0.983886719,57:51.0,00:49.9
427,428,428,19.28511767,-99.1405335,0.129394531,-0.005126953,1.009033203,57:51.1,00:49.9
428,429,429,19.28511767,-99.1405335,0.064208984,0.030273438,0.969482422,57:51.1,00:49.9
429,430,430,19.28511767,-99.1405335,-0.257324219,0.063720703,1.182617188,57:51.1,00:49.9
430,431,431,19.28511767,-99.1405335,-0.505859375,-0.018066406,1.423828125,57:51.1,00:49.9
431,432,432,19.28511767,-99.1405335,-0.533935547,-0.33984375,1.370117188,57:51.1,00:49.9
432,433,433,19.28507433,-99.1405445,-0.604980469,-0.250244141,1.224609375,57:51.2,00:50.0
433,434,434,19.28507433,-99.1405445,-0.574462891,-0.0546875,1.233398438,57:51.2,00:50.0
434,435,435,19.28507433,-99.1405445,-0.314453125,0.027587891,1.112304688,57:51.2,00:50.0
435,436,436,19.28507433,-99.1405445,-0.239013672,-0.068115234,1.116455078,57:51.2,00:50.0
436,437,437,19.28507433,-99.1405445,-0.117675781,0.015136719,0.9296875,57:51.2,00:50.0
437,438,438,19.28507433,-99.1405445,0.058349609,0.017333984,0.964111328,57:51.2,00:50.0
438,439,439,19.28507433,-99.1405445,-0.000244141,0.139892578,0.859130859,57:51.3,00:50.1
439,440,440,19.28507433,-99.1405445,0.013916016,0.16796875,0.973632813,57:51.3,00:50.1
440,441,441,19.28507433,-99.1405445,0.084960938,0.171386719,0.787353516,57:51.3,00:50.1
441,442,442,19.28503083,-99.14054583,0.195800781,0.222167969,0.816894531,57:51.3,00:50.1
442,443,443,19.28503083,-99.14054583,0.245117188,0.169433594,0.834960938,57:51.3,00:50.1
443,444,444,19.28503083,-99.14054583,0.341308594,0.263916016,0.772705078,57:51.3,00:50.1
444,445,445,19.28503083,-99.14054583,0.448486328,0.291259766,0.811767578,57:51.4,00:50.2
445,446,446,19.28503083,-99.14054583,0.345703125,0.19921875,0.818603516,57:51.4,00:50.2
446,447,447,19.28503083,-99.14054583,0.383789063,0.133056641,0.764892578,57:51.4,00:50.2
447,448,448,19.28503083,-99.14054583,0.356689453,0.079345703,0.788574219,57:51.4,00:50.2
448,449,449,19.28503083,-99.14054583,0.313232422,0.086425781,0.801513672,57:51.4,00:50.2
449,450,450,19.28503083,-99.14054583,0.313964844,0.076904297,0.757080078,57:51.5,00:50.3
450,451,451,19.28498817,-99.1405465,0.129394531,0.042236328,0.944091797,57:53.3,00:52.1
451,452,452,19.28498817,-99.1405465,0.053955078,0.076171875,0.895751953,57:53.3,00:52.1
452,453,453,19.28498817,-99.1405465,0.026367188,0.083496094,0.928466797,57:53.3,00:52.2
453,454,454,19.28498817,-99.1405465,0.026611328,0.055419922,0.869384766,57:53.4,00:52.2
454,455,455,19.28498817,-99.1405465,0.053222656,0.027099609,0.927734375,57:53.4,00:52.2
455,456,456,19.28498817,-99.1405465,0.111083984,0.012695313,0.931396484,57:53.4,00:52.2
456,457,457,19.28498817,-99.1405465,0.136474609,-0.001708984,0.907226563,57:53.4,00:52.2
457,458,458,19.28498817,-99.1405465,0.063476563,0.056884766,0.959716797,57:53.4,00:52.3
65,66,66,19.28506867,-99.14053583,0.172119141,0.014892578,0.882568359,26:29.9,00:07.6
66,67,67,19.28506867,-99.14053583,0.136474609,0.016357422,0.927246094,26:29.9,00:07.7
67,68,68,19.28506867,-99.14053583,0.113769531,0.061523438,0.897216797,26:30.0,00:07.7
68,69,69,19.28506867,-99.14053583,0.442626953,-0.112060547,0.819335938,26:30.1,00:07.8
69,70,70,19.28506867,-99.14053583,0.117675781,-0.140380859,0.787353516,26:30.2,00:07.9
70,71,71,19.28506867,-99.14053583,-0.158203125,-0.004394531,0.9296875,26:30.2,00:08.0
71,72,72,19.28506867,-99.14053583,-0.746582031,0.704589844,1.380615234,26:30.3,00:08.0
72,73,73,19.28500667,-99.14054133,0.247070313,0.143554688,0.92578125,26:30.8,00:08.5
73,74,74,19.28500667,-99.14054133,0.200683594,-0.040527344,0.787109375,26:30.8,00:08.5
74,75,75,19.28500667,-99.14054133,0.184082031,0.096679688,0.780273438,26:30.9,00:08.6
75,76,76,19.28500667,-99.14054133,0.072021484,-0.066894531,0.958007813,26:32.0,00:09.7
76,77,77,19.28500667,-99.14054133,0.128417969,-0.074951172,0.964355469,26:32.0,00:09.7
77,78,78,19.28500667,-99.14054133,0.134521484,0.0859375,0.898925781,26:32.0,00:09.8
78,79,79,19.28500667,-99.14054133,0.118896484,0.082519531,0.801513672,26:32.0,00:09.8
79,80,80,19.28500667,-99.14054133,0.137695313,0.027832031,0.867919922,26:32.1,00:09.8
80,81,81,19.28500667,-99.14054133,0.136230469,0.009277344,0.813232422,26:32.1,00:09.8
81,82,82,19.28493433,-99.14054433,0.084228516,-0.029541016,1.024169922,26:32.1,00:09.8
82,83,83,19.28493433,-99.14054433,0.007324219,-0.025634766,0.934326172,26:32.1,00:09.8
83,84,84,19.28493433,-99.14054433,0.031982422,0.006835938,1.005859375,26:32.1,00:09.8
84,85,85,19.28493433,-99.14054433,0.102539063,0.043212891,0.818115234,26:32.1,00:09.9
65,66,66,19.28506867,-99.14053583,0.172119141,0.014892578,0.882568359,26:29.9,00:07.6
66,67,67,19.28506867,-99.14053583,0.136474609,0.016357422,0.927246094,26:29.9,00:07.7
67,68,68,19.28506867,-99.14053583,0.113769531,0.061523438,0.897216797,26:30.0,00:07.7
68,69,69,19.28506867,-99.14053583,0.442626953,-0.112060547,0.819335938,26:30.1,00:07.8
69,70,70,19.28506867,-99.14053583,0.117675781,-0.140380859,0.787353516,26:30.2,00:07.9
70,71,71,19.28506867,-99.14053583,-0.158203125,-0.004394531,0.9296875,26:30.2,00:08.0
71,72,72,19.28506867,-99.14053583,-0.746582031,0.704589844,1.380615234,26:30.3,00:08.0
72,73,73,19.28500667,-99.14054133,0.247070313,0.143554688,0.92578125,26:30.8,00:08.5
73,74,74,19.28500667,-99.14054133,0.200683594,-0.040527344,0.787109375,26:30.8,00:08.5
74,75,75,19.28500667,-99.14054133,0.184082031,0.096679688,0.780273438,26:30.9,00:08.6
75,76,76,19.28500667,-99.14054133,0.072021484,-0.066894531,0.958007813,26:32.0,00:09.7
76,77,77,19.28500667,-99.14054133,0.128417969,-0.074951172,0.964355469,26:32.0,00:09.7
77,78,78,19.28500667,-99.14054133,0.134521484,0.0859375,0.898925781,26:32.0,00:09.8
78,79,79,19.28500667,-99.14054133,0.118896484,0.082519531,0.801513672,26:32.0,00:09.8
79,80,80,19.28500667,-99.14054133,0.137695313,0.027832031,0.867919922,26:32.1,00:09.8
80,81,81,19.28500667,-99.14054133,0.136230469,0.009277344,0.813232422,26:32.1,00:09.8
81,82,82,19.28493433,-99.14054433,0.084228516,-0.029541016,1.024169922,26:32.1,00:09.8
82,83,83,19.28493433,-99.14054433,0.007324219,-0.025634766,0.934326172,26:32.1,00:09.8
83,84,84,19.28493433,-99.14054433,0.031982422,0.006835938,1.005859375,26:32.1,00:09.8
84,85,85,19.28493433,-99.14054433,0.102539063,0.043212891,0.818115234,26:32.1,00:09.9
65,66,66,19.28506867,-99.14053583,0.172119141,0.014892578,0.882568359,26:29.9,00:07.6
66,67,67,19.28506867,-99.14053583,0.136474609,0.016357422,0.927246094,26:29.9,00:07.7
67,68,68,19.28506867,-99.14053583,0.113769531,0.061523438,0.897216797,26:30.0,00:07.7
68,69,69,19.28506867,-99.14053583,0.442626953,-0.112060547,0.819335938,26:30.1,00:07.8
69,70,70,19.28506867,-99.14053583,0.117675781,-0.140380859,0.787353516,26:30.2,00:07.9
70,71,71,19.28506867,-99.14053583,-0.158203125,-0.004394531,0.9296875,26:30.2,00:08.0
71,72,72,19.28506867,-99.14053583,-0.746582031,0.704589844,1.380615234,26:30.3,00:08.0
72,73,73,19.28500667,-99.14054133,0.247070313,0.143554688,0.92578125,26:30.8,00:08.5
73,74,74,19.28500667,-99.14054133,0.200683594,-0.040527344,0.787109375,26:30.8,00:08.5
74,75,75,19.28500667,-99.14054133,0.184082031,0.096679688,0.780273438,26:30.9,00:08.6
75,76,76,19.28500667,-99.14054133,0.072021484,-0.066894531,0.958007813,26:32.0,00:09.7
76,77,77,19.28500667,-99.14054133,0.128417969,-0.074951172,0.964355469,26:32.0,00:09.7
77,78,78,19.28500667,-99.14054133,0.134521484,0.0859375,0.898925781,26:32.0,00:09.8
78,79,79,19.28500667,-99.14054133,0.118896484,0.082519531,0.801513672,26:32.0,00:09.8
79,80,80,19.28500667,-99.14054133,0.137695313,0.027832031,0.867919922,26:32.1,00:09.8
80,81,81,19.28500667,-99.14054133,0.136230469,0.009277344,0.813232422,26:32.1,00:09.8
81,82,82,19.28493433,-99.14054433,0.084228516,-0.029541016,1.024169922,26:32.1,00:09.8
82,83,83,19.28493433,-99.14054433,0.007324219,-0.025634766,0.934326172,26:32.1,00:09.8
83,84,84,19.28493433,-99.14054433,0.031982422,0.006835938,1.005859375,26:32.1,00:09.8
84,85,85,19.28493433,-99.14054433,0.102539063,0.043212891,0.818115234,26:32.1,00:09.9
65,66,66,19.28506867,-99.14053583,0.172119141,0.014892578,0.882568359,26:29.9,00:07.6
66,67,67,19.28506867,-99.14053583,0.136474609,0.016357422,0.927246094,26:29.9,00:07.7
67,68,68,19.28506867,-99.14053583,0.113769531,0.061523438,0.897216797,26:30.0,00:07.7
68,69,69,19.28506867,-99.14053583,0.442626953,-0.112060547,0.819335938,26:30.1,00:07.8
69,70,70,19.28506867,-99.14053583,0.117675781,-0.140380859,0.787353516,26:30.2,00:07.9
70,71,71,19.28506867,-99.14053583,-0.158203125,-0.004394531,0.9296875,26:30.2,00:08.0
71,72,72,19.28506867,-99.14053583,-0.746582031,0.704589844,1.380615234,26:30.3,00:08.0
72,73,73,19.28500667,-99.14054133,0.247070313,0.143554688,0.92578125,26:30.8,00:08.5
73,74,74,19.28500667,-99.14054133,0.200683594,-0.040527344,0.787109375,26:30.8,00:08.5
74,75,75,19.28500667,-99.14054133,0.184082031,0.096679688,0.780273438,26:30.9,00:08.6
75,76,76,19.28500667,-99.14054133,0.072021484,-0.066894531,0.958007813,26:32.0,00:09.7
76,77,77,19.28500667,-99.14054133,0.128417969,-0.074951172,0.964355469,26:32.0,00:09.7
77,78,78,19.28500667,-99.14054133,0.134521484,0.0859375,0.898925781,26:32.0,00:09.8
78,79,79,19.28500667,-99.14054133,0.118896484,0.082519531,0.801513672,26:32.0,00:09.8
79,80,80,19.28500667,-99.14054133,0.137695313,0.027832031,0.867919922,26:32.1,00:09.8
80,81,81,19.28500667,-99.14054133,0.136230469,0.009277344,0.813232422,26:32.1,00:09.8
81,82,82,19.28493433,-99.14054433,0.084228516,-0.029541016,1.024169922,26:32.1,00:09.8
82,83,83,19.28493433,-99.14054433,0.007324219,-0.025634766,0.934326172,26:32.1,00:09.8
83,84,84,19.28493433,-99.14054433,0.031982422,0.006835938,1.005859375,26:32.1,00:09.8
84,85,85,19.28493433,-99.14054433,0.102539063,0.043212891,0.818115234,26:32.1,00:09.9
65,66,66,19.28506867,-99.14053583,0.172119141,0.014892578,0.882568359,26:29.9,00:07.6
66,67,67,19.28506867,-99.14053583,0.136474609,0.016357422,0.927246094,26:29.9,00:07.7
67,68,68,19.28506867,-99.14053583,0.113769531,0.061523438,0.897216797,26:30.0,00:07.7
68,69,69,19.28506867,-99.14053583,0.442626953,-0.112060547,0.819335938,26:30.1,00:07.8
69,70,70,19.28506867,-99.14053583,0.117675781,-0.140380859,0.787353516,26:30.2,00:07.9
70,71,71,19.28506867,-99.14053583,-0.158203125,-0.004394531,0.9296875,26:30.2,00:08.0
71,72,72,19.28506867,-99.14053583,-0.746582031,0.704589844,1.380615234,26:30.3,00:08.0
72,73,73,19.28500667,-99.14054133,0.247070313,0.143554688,0.92578125,26:30.8,00:08.5
73,74,74,19.28500667,-99.14054133,0.200683594,-0.040527344,0.787109375,26:30.8,00:08.5
74,75,75,19.28500667,-99.14054133,0.184082031,0.096679688,0.780273438,26:30.9,00:08.6
75,76,76,19.28500667,-99.14054133,0.072021484,-0.066894531,0.958007813,26:32.0,00:09.7
76,77,77,19.28500667,-99.14054133,0.128417969,-0.074951172,0.964355469,26:32.0,00:09.7
77,78,78,19.28500667,-99.14054133,0.134521484,0.0859375,0.898925781,26:32.0,00:09.8
78,79,79,19.28500667,-99.14054133,0.118896484,0.082519531,0.801513672,26:32.0,00:09.8
79,80,80,19.28500667,-99.14054133,0.137695313,0.027832031,0.867919922,26:32.1,00:09.8
80,81,81,19.28500667,-99.14054133,0.136230469,0.009277344,0.813232422,26:32.1,00:09.8
81,82,82,19.28493433,-99.14054433,0.084228516,-0.029541016,1.024169922,26:32.1,00:09.8
82,83,83,19.28493433,-99.14054433,0.007324219,-0.025634766,0.934326172,26:32.1,00:09.8
83,84,84,19.28493433,-99.14054433,0.031982422,0.006835938,1.005859375,26:32.1,00:09.8
84,85,85,19.28493433,-99.14054433,0.102539063,0.043212891,0.818115234,26:32.1,00:09.9
65,66,66,19.28506867,-99.14053583,0.172119141,0.014892578,0.882568359,26:29.9,00:07.6
66,67,67,19.28506867,-99.14053583,0.136474609,0.016357422,0.927246094,26:29.9,00:07.7
67,68,68,19.28506867,-99.14053583,0.113769531,0.061523438,0.897216797,26:30.0,00:07.7
68,69,69,19.28506867,-99.14053583,0.442626953,-0.112060547,0.819335938,26:30.1,00:07.8
69,70,70,19.28506867,-99.14053583,0.117675781,-0.140380859,0.787353516,26:30.2,00:07.9
70,71,71,19.28506867,-99.14053583,-0.158203125,-0.004394531,0.9296875,26:30.2,00:08.0
71,72,72,19.28506867,-99.14053583,-0.746582031,0.704589844,1.380615234,26:30.3,00:08.0
72,73,73,19.28500667,-99.14054133,0.247070313,0.143554688,0.92578125,26:30.8,00:08.5
73,74,74,19.28500667,-99.14054133,0.200683594,-0.040527344,0.787109375,26:30.8,00:08.5
74,75,75,19.28500667,-99.14054133,0.184082031,0.096679688,0.780273438,26:30.9,00:08.6
75,76,76,19.28500667,-99.14054133,0.072021484,-0.066894531,0.958007813,26:32.0,00:09.7
76,77,77,19.28500667,-99.14054133,0.128417969,-0.074951172,0.964355469,26:32.0,00:09.7
77,78,78,19.28500667,-99.14054133,0.134521484,0.0859375,0.898925781,26:32.0,00:09.8
78,79,79,19.28500667,-99.14054133,0.118896484,0.082519531,0.801513672,26:32.0,00:09.8
79,80,80,19.28500667,-99.14054133,0.137695313,0.027832031,0.867919922,26:32.1,00:09.8
80,81,81,19.28500667,-99.14054133,0.136230469,0.009277344,0.813232422,26:32.1,00:09.8
81,82,82,19.28493433,-99.14054433,0.084228516,-0.029541016,1.024169922,26:32.1,00:09.8
82,83,83,19.28493433,-99.14054433,0.007324219,-0.025634766,0.934326172,26:32.1,00:09.8
83,84,84,19.28493433,-99.14054433,0.031982422,0.006835938,1.005859375,26:32.1,00:09.8
84,85,85,19.28493433,-99.14054433,0.102539063,0.043212891,0.818115234,26:32.1,00:09.9
65,66,66,19.28506867,-99.14053583,0.172119141,0.014892578,0.882568359,26:29.9,00:07.6
66,67,67,19.28506867,-99.14053583,0.136474609,0.016357422,0.927246094,26:29.9,00:07.7
67,68,68,19.28506867,-99.14053583,0.113769531,0.061523438,0.897216797,26:30.0,00:07.7
68,69,69,19.28506867,-99.14053583,0.442626953,-0.112060547,0.819335938,26:30.1,00:07.8
69,70,70,19.28506867,-99.14053583,0.117675781,-0.140380859,0.787353516,26:30.2,00:07.9
70,71,71,19.28506867,-99.14053583,-0.158203125,-0.004394531,0.9296875,26:30.2,00:08.0
71,72,72,19.28506867,-99.14053583,-0.746582031,0.704589844,1.380615234,26:30.3,00:08.0
72,73,73,19.28500667,-99.14054133,0.247070313,0.143554688,0.92578125,26:30.8,00:08.5
73,74,74,19.28500667,-99.14054133,0.200683594,-0.040527344,0.787109375,26:30.8,00:08.5
74,75,75,19.28500667,-99.14054133,0.184082031,0.096679688,0.780273438,26:30.9,00:08.6
75,76,76,19.28500667,-99.14054133,0.072021484,-0.066894531,0.958007813,26:32.0,00:09.7
76,77,77,19.28500667,-99.14054133,0.128417969,-0.074951172,0.964355469,26:32.0,00:09.7
77,78,78,19.28500667,-99.14054133,0.134521484,0.0859375,0.898925781,26:32.0,00:09.8
78,79,79,19.28500667,-99.14054133,0.118896484,0.082519531,0.801513672,26:32.0,00:09.8
79,80,80,19.28500667,-99.14054133,0.137695313,0.027832031,0.867919922,26:32.1,00:09.8
80,81,81,19.28500667,-99.14054133,0.136230469,0.009277344,0.813232422,26:32.1,00:09.8
81,82,82,19.28493433,-99.14054433,0.084228516,-0.029541016,1.024169922,26:32.1,00:09.8
82,83,83,19.28493433,-99.14054433,0.007324219,-0.025634766,0.934326172,26:32.1,00:09.8
83,84,84,19.28493433,-99.14054433,0.031982422,0.006835938,1.005859375,26:32.1,00:09.8
84,85,85,19.28493433,-99.14054433,0.102539063,0.043212891,0.818115234,26:32.1,00:09.9
65,66,66,19.28506867,-99.14053583,0.172119141,0.014892578,0.882568359,26:29.9,00:07.6
66,67,67,19.28506867,-99.14053583,0.136474609,0.016357422,0.927246094,26:29.9,00:07.7
67,68,68,19.28506867,-99.14053583,0.113769531,0.061523438,0.897216797,26:30.0,00:07.7
68,69,69,19.28506867,-99.14053583,0.442626953,-0.112060547,0.819335938,26:30.1,00:07.8
69,70,70,19.28506867,-99.14053583,0.117675781,-0.140380859,0.787353516,26:30.2,00:07.9
70,71,71,19.28506867,-99.14053583,-0.158203125,-0.004394531,0.9296875,26:30.2,00:08.0
71,72,72,19.28506867,-99.14053583,-0.746582031,0.704589844,1.380615234,26:30.3,00:08.0
72,73,73,19.28500667,-99.14054133,0.247070313,0.143554688,0.92578125,26:30.8,00:08.5
73,74,74,19.28500667,-99.14054133,0.200683594,-0.040527344,0.787109375,26:30.8,00:08.5
74,75,75,19.28500667,-99.14054133,0.184082031,0.096679688,0.780273438,26:30.9,00:08.6
75,76,76,19.28500667,-99.14054133,0.072021484,-0.066894531,0.958007813,26:32.0,00:09.7
76,77,77,19.28500667,-99.14054133,0.128417969,-0.074951172,0.964355469,26:32.0,00:09.7
77,78,78,19.28500667,-99.14054133,0.134521484,0.0859375,0.898925781,26:32.0,00:09.8
78,79,79,19.28500667,-99.14054133,0.118896484,0.082519531,0.801513672,26:32.0,00:09.8
79,80,80,19.28500667,-99.14054133,0.137695313,0.027832031,0.867919922,26:32.1,00:09.8
80,81,81,19.28500667,-99.14054133,0.136230469,0.009277344,0.813232422,26:32.1,00:09.8
81,82,82,19.28493433,-99.14054433,0.084228516,-0.029541016,1.024169922,26:32.1,00:09.8
82,83,83,19.28493433,-99.14054433,0.007324219,-0.025634766,0.934326172,26:32.1,00:09.8
83,84,84,19.28493433,-99.14054433,0.031982422,0.006835938,1.005859375,26:32.1,00:09.8
84,85,85,19.28493433,-99.14054433,0.102539063,0.043212891,0.818115234,26:32.1,00:09.9
65,66,66,19.28506867,-99.14053583,0.172119141,0.014892578,0.882568359,26:29.9,00:07.6
66,67,67,19.28506867,-99.14053583,0.136474609,0.016357422,0.927246094,26:29.9,00:07.7
67,68,68,19.28506867,-99.14053583,0.113769531,0.061523438,0.897216797,26:30.0,00:07.7
68,69,69,19.28506867,-99.14053583,0.442626953,-0.112060547,0.819335938,26:30.1,00:07.8
69,70,70,19.28506867,-99.14053583,0.117675781,-0.140380859,0.787353516,26:30.2,00:07.9
70,71,71,19.28506867,-99.14053583,-0.158203125,-0.004394531,0.9296875,26:30.2,00:08.0
71,72,72,19.28506867,-99.14053583,-0.746582031,0.704589844,1.380615234,26:30.3,00:08.0
72,73,73,19.28500667,-99.14054133,0.247070313,0.143554688,0.92578125,26:30.8,00:08.5
73,74,74,19.28500667,-99.14054133,0.200683594,-0.040527344,0.787109375,26:30.8,00:08.5
74,75,75,19.28500667,-99.14054133,0.184082031,0.096679688,0.780273438,26:30.9,00:08.6
75,76,76,19.28500667,-99.14054133,0.072021484,-0.066894531,0.958007813,26:32.0,00:09.7
76,77,77,19.28500667,-99.14054133,0.128417969,-0.074951172,0.964355469,26:32.0,00:09.7
77,78,78,19.28500667,-99.14054133,0.134521484,0.0859375,0.898925781,26:32.0,00:09.8
78,79,79,19.28500667,-99.14054133,0.118896484,0.082519531,0.801513672,26:32.0,00:09.8
79,80,80,19.28500667,-99.14054133,0.137695313,0.027832031,0.867919922,26:32.1,00:09.8
80,81,81,19.28500667,-99.14054133,0.136230469,0.009277344,0.813232422,26:32.1,00:09.8
81,82,82,19.28493433,-99.14054433,0.084228516,-0.029541016,1.024169922,26:32.1,00:09.8
82,83,83,19.28493433,-99.14054433,0.007324219,-0.025634766,0.934326172,26:32.1,00:09.8
83,84,84,19.28493433,-99.14054433,0.031982422,0.006835938,1.005859375,26:32.1,00:09.8
84,85,85,19.28493433,-99.14054433,0.102539063,0.043212891,0.818115234,26:32.1,00:09.9
65,66,66,19.28506867,-99.14053583,0.172119141,0.014892578,0.882568359,26:29.9,00:07.6
66,67,67,19.28506867,-99.14053583,0.136474609,0.016357422,0.927246094,26:29.9,00:07.7
67,68,68,19.28506867,-99.14053583,0.113769531,0.061523438,0.897216797,26:30.0,00:07.7
68,69,69,19.28506867,-99.14053583,0.442626953,-0.112060547,0.819335938,26:30.1,00:07.8
69,70,70,19.28506867,-99.14053583,0.117675781,-0.140380859,0.787353516,26:30.2,00:07.9
70,71,71,19.28506867,-99.14053583,-0.158203125,-0.004394531,0.9296875,26:30.2,00:08.0
71,72,72,19.28506867,-99.14053583,-0.746582031,0.704589844,1.380615234,26:30.3,00:08.0
72,73,73,19.28500667,-99.14054133,0.247070313,0.143554688,0.92578125,26:30.8,00:08.5
73,74,74,19.28500667,-99.14054133,0.200683594,-0.040527344,0.787109375,26:30.8,00:08.5
74,75,75,19.28500667,-99.14054133,0.184082031,0.096679688,0.780273438,26:30.9,00:08.6
75,76,76,19.28500667,-99.14054133,0.072021484,-0.066894531,0.958007813,26:32.0,00:09.7
76,77,77,19.28500667,-99.14054133,0.128417969,-0.074951172,0.964355469,26:32.0,00:09.7
77,78,78,19.28500667,-99.14054133,0.134521484,0.0859375,0.898925781,26:32.0,00:09.8
78,79,79,19.28500667,-99.14054133,0.118896484,0.082519531,0.801513672,26:32.0,00:09.8
79,80,80,19.28500667,-99.14054133,0.137695313,0.027832031,0.867919922,26:32.1,00:09.8
80,81,81,19.28500667,-99.14054133,0.136230469,0.009277344,0.813232422,26:32.1,00:09.8
81,82,82,19.28493433,-99.14054433,0.084228516,-0.029541016,1.024169922,26:32.1,00:09.8
82,83,83,19.28493433,-99.14054433,0.007324219,-0.025634766,0.934326172,26:32.1,00:09.8
83,84,84,19.28493433,-99.14054433,0.031982422,0.006835938,1.005859375,26:32.1,00:09.8
84,85,85,19.28493433,-99.14054433,0.102539063,0.043212891,0.818115234,26:32.1,00:09.9
65,66,66,19.28506867,-99.14053583,0.172119141,0.014892578,0.882568359,26:29.9,00:07.6
66,67,67,19.28506867,-99.14053583,0.136474609,0.016357422,0.927246094,26:29.9,00:07.7
67,68,68,19.28506867,-99.14053583,0.113769531,0.061523438,0.897216797,26:30.0,00:07.7
68,69,69,19.28506867,-99.14053583,0.442626953,-0.112060547,0.819335938,26:30.1,00:07.8
69,70,70,19.28506867,-99.14053583,0.117675781,-0.140380859,0.787353516,26:30.2,00:07.9
70,71,71,19.28506867,-99.14053583,-0.158203125,-0.004394531,0.9296875,26:30.2,00:08.0
71,72,72,19.28506867,-99.14053583,-0.746582031,0.704589844,1.380615234,26:30.3,00:08.0
72,73,73,19.28500667,-99.14054133,0.247070313,0.143554688,0.92578125,26:30.8,00:08.5
73,74,74,19.28500667,-99.14054133,0.200683594,-0.040527344,0.787109375,26:30.8,00:08.5
74,75,75,19.28500667,-99.14054133,0.184082031,0.096679688,0.780273438,26:30.9,00:08.6
75,76,76,19.28500667,-99.14054133,0.072021484,-0.066894531,0.958007813,26:32.0,00:09.7
76,77,77,19.28500667,-99.14054133,0.128417969,-0.074951172,0.964355469,26:32.0,00:09.7
77,78,78,19.28500667,-99.14054133,0.134521484,0.0859375,0.898925781,26:32.0,00:09.8
78,79,79,19.28500667,-99.14054133,0.118896484,0.082519531,0.801513672,26:32.0,00:09.8
79,80,80,19.28500667,-99.14054133,0.137695313,0.027832031,0.867919922,26:32.1,00:09.8
80,81,81,19.28500667,-99.14054133,0.136230469,0.009277344,0.813232422,26:32.1,00:09.8
81,82,82,19.28493433,-99.14054433,0.084228516,-0.029541016,1.024169922,26:32.1,00:09.8
82,83,83,19.28493433,-99.14054433,0.007324219,-0.025634766,0.934326172,26:32.1,00:09.8
83,84,84,19.28493433,-99.14054433,0.031982422,0.006835938,1.005859375,26:32.1,00:09.8
84,85,85,19.28493433,-99.14054433,0.102539063,0.043212891,0.818115234,26:32.1,00:09.9
65,66,66,19.28506867,-99.14053583,0.172119141,0.014892578,0.882568359,26:29.9,00:07.6
66,67,67,19.28506867,-99.14053583,0.136474609,0.016357422,0.927246094,26:29.9,00:07.7
67,68,68,19.28506867,-99.14053583,0.113769531,0.061523438,0.897216797,26:30.0,00:07.7
68,69,69,19.28506867,-99.14053583,0.442626953,-0.112060547,0.819335938,26:30.1,00:07.8
69,70,70,19.28506867,-99.14053583,0.117675781,-0.140380859,0.787353516,26:30.2,00:07.9
70,71,71,19.28506867,-99.14053583,-0.158203125,-0.004394531,0.9296875,26:30.2,00:08.0
71,72,72,19.28506867,-99.14053583,-0.746582031,0.704589844,1.380615234,26:30.3,00:08.0
72,73,73,19.28500667,-99.14054133,0.247070313,0.143554688,0.92578125,26:30.8,00:08.5
73,74,74,19.28500667,-99.14054133,0.200683594,-0.040527344,0.787109375,26:30.8,00:08.5
74,75,75,19.28500667,-99.14054133,0.184082031,0.096679688,0.780273438,26:30.9,00:08.6
75,76,76,19.28500667,-99.14054133,0.072021484,-0.066894531,0.958007813,26:32.0,00:09.7
76,77,77,19.28500667,-99.14054133,0.128417969,-0.074951172,0.964355469,26:32.0,00:09.7
77,78,78,19.28500667,-99.14054133,0.134521484,0.0859375,0.898925781,26:32.0,00:09.8
78,79,79,19.28500667,-99.14054133,0.118896484,0.082519531,0.801513672,26:32.0,00:09.8
79,80,80,19.28500667,-99.14054133,0.137695313,0.027832031,0.867919922,26:32.1,00:09.8
80,81,81,19.28500667,-99.14054133,0.136230469,0.009277344,0.813232422,26:32.1,00:09.8
81,82,82,19.28493433,-99.14054433,0.084228516,-0.029541016,1.024169922,26:32.1,00:09.8
82,83,83,19.28493433,-99.14054433,0.007324219,-0.025634766,0.934326172,26:32.1,00:09.8
83,84,84,19.28493433,-99.14054433,0.031982422,0.006835938,1.005859375,26:32.1,00:09.8
84,85,85,19.28493433,-99.14054433,0.102539063,0.043212891,0.818115234,26:32.1,00:09.9
65,66,66,19.28506867,-99.14053583,0.172119141,0.014892578,0.882568359,26:29.9,00:07.6
66,67,67,19.28506867,-99.14053583,0.136474609,0.016357422,0.927246094,26:29.9,00:07.7
67,68,68,19.28506867,-99.14053583,0.113769531,0.061523438,0.897216797,26:30.0,00:07.7
68,69,69,19.28506867,-99.14053583,0.442626953,-0.112060547,0.819335938,26:30.1,00:07.8
69,70,70,19.28506867,-99.14053583,0.117675781,-0.140380859,0.787353516,26:30.2,00:07.9
70,71,71,19.28506867,-99.14053583,-0.158203125,-0.004394531,0.9296875,26:30.2,00:08.0
71,72,72,19.28506867,-99.14053583,-0.746582031,0.704589844,1.380615234,26:30.3,00:08.0
72,73,73,19.28500667,-99.14054133,0.247070313,0.143554688,0.92578125,26:30.8,00:08.5
73,74,74,19.28500667,-99.14054133,0.200683594,-0.040527344,0.787109375,26:30.8,00:08.5
74,75,75,19.28500667,-99.14054133,0.184082031,0.096679688,0.780273438,26:30.9,00:08.6
75,76,76,19.28500667,-99.14054133,0.072021484,-0.066894531,0.958007813,26:32.0,00:09.7
76,77,77,19.28500667,-99.14054133,0.128417969,-0.074951172,0.964355469,26:32.0,00:09.7
77,78,78,19.28500667,-99.14054133,0.134521484,0.0859375,0.898925781,26:32.0,00:09.8
78,79,79,19.28500667,-99.14054133,0.118896484,0.082519531,0.801513672,26:32.0,00:09.8
79,80,80,19.28500667,-99.14054133,0.137695313,0.027832031,0.867919922,26:32.1,00:09.8
80,81,81,19.28500667,-99.14054133,0.136230469,0.009277344,0.813232422,26:32.1,00:09.8
81,82,82,19.28493433,-99.14054433,0.084228516,-0.029541016,1.024169922,26:32.1,00:09.8
82,83,83,19.28493433,-99.14054433,0.007324219,-0.025634766,0.934326172,26:32.1,00:09.8
83,84,84,19.28493433,-99.14054433,0.031982422,0.006835938,1.005859375,26:32.1,00:09.8
84,85,85,19.28493433,-99.14054433,0.102539063,0.043212891,0.818115234,26:32.1,00:09.9
65,66,66,19.28506867,-99.14053583,0.172119141,0.014892578,0.882568359,26:29.9,00:07.6
66,67,67,19.28506867,-99.14053583,0.136474609,0.016357422,0.927246094,26:29.9,00:07.7
67,68,68,19.28506867,-99.14053583,0.113769531,0.061523438,0.897216797,26:30.0,00:07.7
68,69,69,19.28506867,-99.14053583,0.442626953,-0.112060547,0.819335938,26:30.1,00:07.8
69,70,70,19.28506867,-99.14053583,0.117675781,-0.140380859,0.787353516,26:30.2,00:07.9
70,71,71,19.28506867,-99.14053583,-0.158203125,-0.004394531,0.9296875,26:30.2,00:08.0
71,72,72,19.28506867,-99.14053583,-0.746582031,0.704589844,1.380615234,26:30.3,00:08.0
72,73,73,19.28500667,-99.14054133,0.247070313,0.143554688,0.92578125,26:30.8,00:08.5
73,74,74,19.28500667,-99.14054133,0.200683594,-0.040527344,0.787109375,26:30.8,00:08.5
74,75,75,19.28500667,-99.14054133,0.184082031,0.096679688,0.780273438,26:30.9,00:08.6
75,76,76,19.28500667,-99.14054133,0.072021484,-0.066894531,0.958007813,26:32.0,00:09.7
76,77,77,19.28500667,-99.14054133,0.128417969,-0.074951172,0.964355469,26:32.0,00:09.7
77,78,78,19.28500667,-99.14054133,0.134521484,0.0859375,0.898925781,26:32.0,00:09.8
78,79,79,19.28500667,-99.14054133,0.118896484,0.082519531,0.801513672,26:32.0,00:09.8
79,80,80,19.28500667,-99.14054133,0.137695313,0.027832031,0.867919922,26:32.1,00:09.8
80,81,81,19.28500667,-99.14054133,0.136230469,0.009277344,0.813232422,26:32.1,00:09.8
81,82,82,19.28493433,-99.14054433,0.084228516,-0.029541016,1.024169922,26:32.1,00:09.8
82,83,83,19.28493433,-99.14054433,0.007324219,-0.025634766,0.934326172,26:32.1,00:09.8
83,84,84,19.28493433,-99.14054433,0.031982422,0.006835938,1.005859375,26:32.1,00:09.8
84,85,85,19.28493433,-99.14054433,0.102539063,0.043212891,0.818115234,26:32.1,00:09.9
65,66,66,19.28506867,-99.14053583,0.172119141,0.014892578,0.882568359,26:29.9,00:07.6
66,67,67,19.28506867,-99.14053583,0.136474609,0.016357422,0.927246094,26:29.9,00:07.7
67,68,68,19.28506867,-99.14053583,0.113769531,0.061523438,0.897216797,26:30.0,00:07.7
68,69,69,19.28506867,-99.14053583,0.442626953,-0.112060547,0.819335938,26:30.1,00:07.8
69,70,70,19.28506867,-99.14053583,0.117675781,-0.140380859,0.787353516,26:30.2,00:07.9
70,71,71,19.28506867,-99.14053583,-0.158203125,-0.004394531,0.9296875,26:30.2,00:08.0
71,72,72,19.28506867,-99.14053583,-0.746582031,0.704589844,1.380615234,26:30.3,00:08.0
72,73,73,19.28500667,-99.14054133,0.247070313,0.143554688,0.92578125,26:30.8,00:08.5
73,74,74,19.28500667,-99.14054133,0.200683594,-0.040527344,0.787109375,26:30.8,00:08.5
74,75,75,19.28500667,-99.14054133,0.184082031,0.096679688,0.780273438,26:30.9,00:08.6
75,76,76,19.28500667,-99.14054133,0.072021484,-0.066894531,0.958007813,26:32.0,00:09.7
76,77,77,19.28500667,-99.14054133,0.128417969,-0.074951172,0.964355469,26:32.0,00:09.7
77,78,78,19.28500667,-99.14054133,0.134521484,0.0859375,0.898925781,26:32.0,00:09.8
78,79,79,19.28500667,-99.14054133,0.118896484,0.082519531,0.801513672,26:32.0,00:09.8
79,80,80,19.28500667,-99.14054133,0.137695313,0.027832031,0.867919922,26:32.1,00:09.8
80,81,81,19.28500667,-99.14054133,0.136230469,0.009277344,0.813232422,26:32.1,00:09.8
81,82,82,19.28493433,-99.14054433,0.084228516,-0.029541016,1.024169922,26:32.1,00:09.8
82,83,83,19.28493433,-99.14054433,0.007324219,-0.025634766,0.934326172,26:32.1,00:09.8
83,84,84,19.28493433,-99.14054433,0.031982422,0.006835938,1.005859375,26:32.1,00:09.8
84,85,85,19.28493433,-99.14054433,0.102539063,0.043212891,0.818115234,26:32.1,00:09.9
210,211,211,19.28530533,-99.14048283,0.118408203,0.071777344,0.887695313,16:33.1,00:23.9
211,212,212,19.28530533,-99.14048283,0.001220703,0.110107422,0.925048828,16:33.1,00:23.9
212,213,213,19.28530533,-99.14048283,0.056884766,0.092285156,0.935058594,16:33.1,00:23.9
213,214,214,19.28522183,-99.14049783,0.166259766,0.004394531,0.918701172,16:33.2,00:24.0
214,215,215,19.28522183,-99.14049783,0.172851563,0.074951172,0.876464844,16:33.3,00:24.1
215,216,216,19.28522183,-99.14049783,0.053710938,0.108398438,0.919189453,16:33.4,00:24.2
216,217,217,19.28522183,-99.14049783,0.075439453,0.122558594,0.866455078,16:33.4,00:24.2
217,218,218,19.28522183,-99.14049783,0.206054688,0.046386719,0.877441406,16:33.5,00:24.3
218,219,219,19.28522183,-99.14049783,0.128173828,0.070800781,0.850341797,16:33.6,00:24.4
219,220,220,19.28522183,-99.14049783,0.115966797,0.122802734,0.895507813,16:33.6,00:24.4
220,221,221,19.28522183,-99.14049783,0.117675781,0.108398438,0.972900391,16:33.7,00:24.5
221,222,222,19.28522183,-99.14049783,0.067626953,0.047607422,0.979736328,16:33.7,00:24.6
222,223,223,19.285138,-99.14050883,0.109863281,0.031738281,0.907958984,16:34.2,00:25.0
223,224,224,19.285138,-99.14050883,0.062255859,0.071289063,0.885009766,16:34.3,00:25.1
224,225,225,19.285138,-99.14050883,0.136474609,0.168457031,0.892578125,16:34.3,00:25.1
225,226,226,19.285138,-99.14050883,-1.112548828,0.639892578,1.234619141,16:36.0,00:26.8
226,227,227,19.285138,-99.14050883,-0.337158203,0.134033203,1.043701172,16:36.1,00:26.9
227,228,228,19.285138,-99.14050883,0.045654297,-0.079101563,0.991943359,16:36.1,00:26.9
228,229,229,19.285138,-99.14050883,-0.051513672,0.382324219,1.013916016,16:36.1,00:26.9
229,230,230,19.285138,-99.14050883,0.055175781,0.573486328,0.965332031,16:36.1,00:26.9
230,231,231,19.285138,-99.14050883,0.239257813,0.159912109,0.961181641,16:36.1,00:26.9
231,232,232,19.28505367,-99.14051783,0.255615234,-0.116455078,1.074462891,16:36.2,00:27.0
232,233,233,19.28505367,-99.14051783,0.352539063,0.042236328,0.867675781,16:36.2,00:27.0
233,234,234,19.28505367,-99.14051783,0.448974609,0.356689453,0.729736328,16:36.2,00:27.0
234,235,235,19.28505367,-99.14051783,0.539794922,0.594970703,0.5625,16:36.2,00:27.0
235,236,236,19.28505367,-99.14051783,0.572998047,0.033447266,0.534667969,16:36.2,00:27.0
236,237,237,19.28505367,-99.14051783,0.086669922,-0.010742188,0.836669922,16:36.2,00:27.0
237,238,238,19.28505367,-99.14051783,0.155273438,0.035400391,0.991699219,16:36.3,00:27.1
238,239,239,19.28505367,-99.14051783,0.243896484,-0.046630859,0.955078125,16:36.3,00:27.1
239,240,240,19.28505367,-99.14051783,0.171386719,-0.138916016,1.115478516,16:36.3,00:27.1
240,241,241,19.28496767,-99.14052917,-0.342285156,-0.201660156,1.261474609,16:36.3,00:27.1
241,242,242,19.28496767,-99.14052917,-0.174804688,-0.669921875,1.336181641,16:36.3,00:27.1
242,243,243,19.28496767,-99.14052917,0.66015625,0.205810547,0.644287109,16:36.4,00:27.2
243,244,244,19.28496767,-99.14052917,0.399658203,0.09375,1.00390625,16:36.4,00:27.2
244,245,245,19.28496767,-99.14052917,0.134033203,0.212890625,0.817138672,16:36.5,00:27.3
245,246,246,19.28496767,-99.14052917,0.212646484,0.059570313,0.821289063,16:36.6,00:27.4
246,247,247,19.28496767,-99.14052917,0.125244141,-0.029296875,0.893066406,16:36.6,00:27.4
247,248,248,19.28496767,-99.14052917,0.152832031,-0.050048828,0.927490234,16:36.7,00:27.5
248,249,249,19.28496767,-99.14052917,-0.116455078,0.078613281,0.960693359,16:36.7,00:27.6
249,250,250,19.28488233,-99.14054583,0.020507813,0.000244141,0.883300781,16:37.2,00:28.0
210,211,211,19.28530533,-99.14048283,0.118408203,0.071777344,0.887695313,16:33.1,00:23.9
211,212,212,19.28530533,-99.14048283,0.001220703,0.110107422,0.925048828,16:33.1,00:23.9
212,213,213,19.28530533,-99.14048283,0.056884766,0.092285156,0.935058594,16:33.1,00:23.9
213,214,214,19.28522183,-99.14049783,0.166259766,0.004394531,0.918701172,16:33.2,00:24.0
214,215,215,19.28522183,-99.14049783,0.172851563,0.074951172,0.876464844,16:33.3,00:24.1
215,216,216,19.28522183,-99.14049783,0.053710938,0.108398438,0.919189453,16:33.4,00:24.2
216,217,217,19.28522183,-99.14049783,0.075439453,0.122558594,0.866455078,16:33.4,00:24.2
217,218,218,19.28522183,-99.14049783,0.206054688,0.046386719,0.877441406,16:33.5,00:24.3
218,219,219,19.28522183,-99.14049783,0.128173828,0.070800781,0.850341797,16:33.6,00:24.4
219,220,220,19.28522183,-99.14049783,0.115966797,0.122802734,0.895507813,16:33.6,00:24.4
220,221,221,19.28522183,-99.14049783,0.117675781,0.108398438,0.972900391,16:33.7,00:24.5
221,222,222,19.28522183,-99.14049783,0.067626953,0.047607422,0.979736328,16:33.7,00:24.6
222,223,223,19.285138,-99.14050883,0.109863281,0.031738281,0.907958984,16:34.2,00:25.0
223,224,224,19.285138,-99.14050883,0.062255859,0.071289063,0.885009766,16:34.3,00:25.1
224,225,225,19.285138,-99.14050883,0.136474609,0.168457031,0.892578125,16:34.3,00:25.1
225,226,226,19.285138,-99.14050883,-1.112548828,0.639892578,1.234619141,16:36.0,00:26.8
226,227,227,19.285138,-99.14050883,-0.337158203,0.134033203,1.043701172,16:36.1,00:26.9
227,228,228,19.285138,-99.14050883,0.045654297,-0.079101563,0.991943359,16:36.1,00:26.9
228,229,229,19.285138,-99.14050883,-0.051513672,0.382324219,1.013916016,16:36.1,00:26.9
229,230,230,19.285138,-99.14050883,0.055175781,0.573486328,0.965332031,16:36.1,00:26.9
230,231,231,19.285138,-99.14050883,0.239257813,0.159912109,0.961181641,16:36.1,00:26.9
231,232,232,19.28505367,-99.14051783,0.255615234,-0.116455078,1.074462891,16:36.2,00:27.0
232,233,233,19.28505367,-99.14051783,0.352539063,0.042236328,0.867675781,16:36.2,00:27.0
233,234,234,19.28505367,-99.14051783,0.448974609,0.356689453,0.729736328,16:36.2,00:27.0
234,235,235,19.28505367,-99.14051783,0.539794922,0.594970703,0.5625,16:36.2,00:27.0
235,236,236,19.28505367,-99.14051783,0.572998047,0.033447266,0.534667969,16:36.2,00:27.0
236,237,237,19.28505367,-99.14051783,0.086669922,-0.010742188,0.836669922,16:36.2,00:27.0
237,238,238,19.28505367,-99.14051783,0.155273438,0.035400391,0.991699219,16:36.3,00:27.1
238,239,239,19.28505367,-99.14051783,0.243896484,-0.046630859,0.955078125,16:36.3,00:27.1
239,240,240,19.28505367,-99.14051783,0.171386719,-0.138916016,1.115478516,16:36.3,00:27.1
240,241,241,19.28496767,-99.14052917,-0.342285156,-0.201660156,1.261474609,16:36.3,00:27.1
241,242,242,19.28496767,-99.14052917,-0.174804688,-0.669921875,1.336181641,16:36.3,00:27.1
242,243,243,19.28496767,-99.14052917,0.66015625,0.205810547,0.644287109,16:36.4,00:27.2
243,244,244,19.28496767,-99.14052917,0.399658203,0.09375,1.00390625,16:36.4,00:27.2
244,245,245,19.28496767,-99.14052917,0.134033203,0.212890625,0.817138672,16:36.5,00:27.3
245,246,246,19.28496767,-99.14052917,0.212646484,0.059570313,0.821289063,16:36.6,00:27.4
246,247,247,19.28496767,-99.14052917,0.125244141,-0.029296875,0.893066406,16:36.6,00:27.4
247,248,248,19.28496767,-99.14052917,0.152832031,-0.050048828,0.927490234,16:36.7,00:27.5
248,249,249,19.28496767,-99.14052917,-0.116455078,0.078613281,0.960693359,16:36.7,00:27.6
249,250,250,19.28488233,-99.14054583,0.020507813,0.000244141,0.883300781,16:37.2,00:28.0
210,211,211,19.28530533,-99.14048283,0.118408203,0.071777344,0.887695313,16:33.1,00:23.9
211,212,212,19.28530533,-99.14048283,0.001220703,0.110107422,0.925048828,16:33.1,00:23.9
212,213,213,19.28530533,-99.14048283,0.056884766,0.092285156,0.935058594,16:33.1,00:23.9
213,214,214,19.28522183,-99.14049783,0.166259766,0.004394531,0.918701172,16:33.2,00:24.0
214,215,215,19.28522183,-99.14049783,0.172851563,0.074951172,0.876464844,16:33.3,00:24.1
215,216,216,19.28522183,-99.14049783,0.053710938,0.108398438,0.919189453,16:33.4,00:24.2
216,217,217,19.28522183,-99.14049783,0.075439453,0.122558594,0.866455078,16:33.4,00:24.2
217,218,218,19.28522183,-99.14049783,0.206054688,0.046386719,0.877441406,16:33.5,00:24.3
218,219,219,19.28522183,-99.14049783,0.128173828,0.070800781,0.850341797,16:33.6,00:24.4
219,220,220,19.28522183,-99.14049783,0.115966797,0.122802734,0.895507813,16:33.6,00:24.4
220,221,221,19.28522183,-99.14049783,0.117675781,0.108398438,0.972900391,16:33.7,00:24.5
221,222,222,19.28522183,-99.14049783,0.067626953,0.047607422,0.979736328,16:33.7,00:24.6
222,223,223,19.285138,-99.14050883,0.109863281,0.031738281,0.907958984,16:34.2,00:25.0
223,224,224,19.285138,-99.14050883,0.062255859,0.071289063,0.885009766,16:34.3,00:25.1
224,225,225,19.285138,-99.14050883,0.136474609,0.168457031,0.892578125,16:34.3,00:25.1
225,226,226,19.285138,-99.14050883,-1.112548828,0.639892578,1.234619141,16:36.0,00:26.8
226,227,227,19.285138,-99.14050883,-0.337158203,0.134033203,1.043701172,16:36.1,00:26.9
227,228,228,19.285138,-99.14050883,0.045654297,-0.079101563,0.991943359,16:36.1,00:26.9
228,229,229,19.285138,-99.14050883,-0.051513672,0.382324219,1.013916016,16:36.1,00:26.9
229,230,230,19.285138,-99.14050883,0.055175781,0.573486328,0.965332031,16:36.1,00:26.9
230,231,231,19.285138,-99.14050883,0.239257813,0.159912109,0.961181641,16:36.1,00:26.9
231,232,232,19.28505367,-99.14051783,0.255615234,-0.116455078,1.074462891,16:36.2,00:27.0
232,233,233,19.28505367,-99.14051783,0.352539063,0.042236328,0.867675781,16:36.2,00:27.0
233,234,234,19.28505367,-99.14051783,0.448974609,0.356689453,0.729736328,16:36.2,00:27.0
234,235,235,19.28505367,-99.14051783,0.539794922,0.594970703,0.5625,16:36.2,00:27.0
235,236,236,19.28505367,-99.14051783,0.572998047,0.033447266,0.534667969,16:36.2,00:27.0
236,237,237,19.28505367,-99.14051783,0.086669922,-0.010742188,0.836669922,16:36.2,00:27.0
237,238,238,19.28505367,-99.14051783,0.155273438,0.035400391,0.991699219,16:36.3,00:27.1
238,239,239,19.28505367,-99.14051783,0.243896484,-0.046630859,0.955078125,16:36.3,00:27.1
239,240,240,19.28505367,-99.14051783,0.171386719,-0.138916016,1.115478516,16:36.3,00:27.1
240,241,241,19.28496767,-99.14052917,-0.342285156,-0.201660156,1.261474609,16:36.3,00:27.1
241,242,242,19.28496767,-99.14052917,-0.174804688,-0.669921875,1.336181641,16:36.3,00:27.1
242,243,243,19.28496767,-99.14052917,0.66015625,0.205810547,0.644287109,16:36.4,00:27.2
243,244,244,19.28496767,-99.14052917,0.399658203,0.09375,1.00390625,16:36.4,00:27.2
244,245,245,19.28496767,-99.14052917,0.134033203,0.212890625,0.817138672,16:36.5,00:27.3
245,246,246,19.28496767,-99.14052917,0.212646484,0.059570313,0.821289063,16:36.6,00:27.4
246,247,247,19.28496767,-99.14052917,0.125244141,-0.029296875,0.893066406,16:36.6,00:27.4
247,248,248,19.28496767,-99.14052917,0.152832031,-0.050048828,0.927490234,16:36.7,00:27.5
248,249,249,19.28496767,-99.14052917,-0.116455078,0.078613281,0.960693359,16:36.7,00:27.6
249,250,250,19.28488233,-99.14054583,0.020507813,0.000244141,0.883300781,16:37.2,00:28.0
210,211,211,19.28530533,-99.14048283,0.118408203,0.071777344,0.887695313,16:33.1,00:23.9
211,212,212,19.28530533,-99.14048283,0.001220703,0.110107422,0.925048828,16:33.1,00:23.9
212,213,213,19.28530533,-99.14048283,0.056884766,0.092285156,0.935058594,16:33.1,00:23.9
213,214,214,19.28522183,-99.14049783,0.166259766,0.004394531,0.918701172,16:33.2,00:24.0
214,215,215,19.28522183,-99.14049783,0.172851563,0.074951172,0.876464844,16:33.3,00:24.1
215,216,216,19.28522183,-99.14049783,0.053710938,0.108398438,0.919189453,16:33.4,00:24.2
216,217,217,19.28522183,-99.14049783,0.075439453,0.122558594,0.866455078,16:33.4,00:24.2
217,218,218,19.28522183,-99.14049783,0.206054688,0.046386719,0.877441406,16:33.5,00:24.3
218,219,219,19.28522183,-99.14049783,0.128173828,0.070800781,0.850341797,16:33.6,00:24.4
219,220,220,19.28522183,-99.14049783,0.115966797,0.122802734,0.895507813,16:33.6,00:24.4
220,221,221,19.28522183,-99.14049783,0.117675781,0.108398438,0.972900391,16:33.7,00:24.5
221,222,222,19.28522183,-99.14049783,0.067626953,0.047607422,0.979736328,16:33.7,00:24.6
222,223,223,19.285138,-99.14050883,0.109863281,0.031738281,0.907958984,16:34.2,00:25.0
223,224,224,19.285138,-99.14050883,0.062255859,0.071289063,0.885009766,16:34.3,00:25.1
224,225,225,19.285138,-99.14050883,0.136474609,0.168457031,0.892578125,16:34.3,00:25.1
225,226,226,19.285138,-99.14050883,-1.112548828,0.639892578,1.234619141,16:36.0,00:26.8
226,227,227,19.285138,-99.14050883,-0.337158203,0.134033203,1.043701172,16:36.1,00:26.9
227,228,228,19.285138,-99.14050883,0.045654297,-0.079101563,0.991943359,16:36.1,00:26.9
228,229,229,19.285138,-99.14050883,-0.051513672,0.382324219,1.013916016,16:36.1,00:26.9
229,230,230,19.285138,-99.14050883,0.055175781,0.573486328,0.965332031,16:36.1,00:26.9
230,231,231,19.285138,-99.14050883,0.239257813,0.159912109,0.961181641,16:36.1,00:26.9
231,232,232,19.28505367,-99.14051783,0.255615234,-0.116455078,1.074462891,16:36.2,00:27.0
232,233,233,19.28505367,-99.14051783,0.352539063,0.042236328,0.867675781,16:36.2,00:27.0
233,234,234,19.28505367,-99.14051783,0.448974609,0.356689453,0.729736328,16:36.2,00:27.0
234,235,235,19.28505367,-99.14051783,0.539794922,0.594970703,0.5625,16:36.2,00:27.0
235,236,236,19.28505367,-99.14051783,0.572998047,0.033447266,0.534667969,16:36.2,00:27.0
236,237,237,19.28505367,-99.14051783,0.086669922,-0.010742188,0.836669922,16:36.2,00:27.0
237,238,238,19.28505367,-99.14051783,0.155273438,0.035400391,0.991699219,16:36.3,00:27.1
238,239,239,19.28505367,-99.14051783,0.243896484,-0.046630859,0.955078125,16:36.3,00:27.1
239,240,240,19.28505367,-99.14051783,0.171386719,-0.138916016,1.115478516,16:36.3,00:27.1
240,241,241,19.28496767,-99.14052917,-0.342285156,-0.201660156,1.261474609,16:36.3,00:27.1
241,242,242,19.28496767,-99.14052917,-0.174804688,-0.669921875,1.336181641,16:36.3,00:27.1
242,243,243,19.28496767,-99.14052917,0.66015625,0.205810547,0.644287109,16:36.4,00:27.2
243,244,244,19.28496767,-99.14052917,0.399658203,0.09375,1.00390625,16:36.4,00:27.2
244,245,245,19.28496767,-99.14052917,0.134033203,0.212890625,0.817138672,16:36.5,00:27.3
245,246,246,19.28496767,-99.14052917,0.212646484,0.059570313,0.821289063,16:36.6,00:27.4
246,247,247,19.28496767,-99.14052917,0.125244141,-0.029296875,0.893066406,16:36.6,00:27.4
247,248,248,19.28496767,-99.14052917,0.152832031,-0.050048828,0.927490234,16:36.7,00:27.5
248,249,249,19.28496767,-99.14052917,-0.116455078,0.078613281,0.960693359,16:36.7,00:27.6
249,250,250,19.28488233,-99.14054583,0.020507813,0.000244141,0.883300781,16:37.2,00:28.0
210,211,211,19.28530533,-99.14048283,0.118408203,0.071777344,0.887695313,16:33.1,00:23.9
211,212,212,19.28530533,-99.14048283,0.001220703,0.110107422,0.925048828,16:33.1,00:23.9
212,213,213,19.28530533,-99.14048283,0.056884766,0.092285156,0.935058594,16:33.1,00:23.9
213,214,214,19.28522183,-99.14049783,0.166259766,0.004394531,0.918701172,16:33.2,00:24.0
214,215,215,19.28522183,-99.14049783,0.172851563,0.074951172,0.876464844,16:33.3,00:24.1
215,216,216,19.28522183,-99.14049783,0.053710938,0.108398438,0.919189453,16:33.4,00:24.2
216,217,217,19.28522183,-99.14049783,0.075439453,0.122558594,0.866455078,16:33.4,00:24.2
217,218,218,19.28522183,-99.14049783,0.206054688,0.046386719,0.877441406,16:33.5,00:24.3
218,219,219,19.28522183,-99.14049783,0.128173828,0.070800781,0.850341797,16:33.6,00:24.4
219,220,220,19.28522183,-99.14049783,0.115966797,0.122802734,0.895507813,16:33.6,00:24.4
220,221,221,19.28522183,-99.14049783,0.117675781,0.108398438,0.972900391,16:33.7,00:24.5
221,222,222,19.28522183,-99.14049783,0.067626953,0.047607422,0.979736328,16:33.7,00:24.6
222,223,223,19.285138,-99.14050883,0.109863281,0.031738281,0.907958984,16:34.2,00:25.0
223,224,224,19.285138,-99.14050883,0.062255859,0.071289063,0.885009766,16:34.3,00:25.1
224,225,225,19.285138,-99.14050883,0.136474609,0.168457031,0.892578125,16:34.3,00:25.1
225,226,226,19.285138,-99.14050883,-1.112548828,0.639892578,1.234619141,16:36.0,00:26.8
226,227,227,19.285138,-99.14050883,-0.337158203,0.134033203,1.043701172,16:36.1,00:26.9
227,228,228,19.285138,-99.14050883,0.045654297,-0.079101563,0.991943359,16:36.1,00:26.9
228,229,229,19.285138,-99.14050883,-0.051513672,0.382324219,1.013916016,16:36.1,00:26.9
229,230,230,19.285138,-99.14050883,0.055175781,0.573486328,0.965332031,16:36.1,00:26.9
230,231,231,19.285138,-99.14050883,0.239257813,0.159912109,0.961181641,16:36.1,00:26.9
231,232,232,19.28505367,-99.14051783,0.255615234,-0.116455078,1.074462891,16:36.2,00:27.0
232,233,233,19.28505367,-99.14051783,0.352539063,0.042236328,0.867675781,16:36.2,00:27.0
233,234,234,19.28505367,-99.14051783,0.448974609,0.356689453,0.729736328,16:36.2,00:27.0
234,235,235,19.28505367,-99.14051783,0.539794922,0.594970703,0.5625,16:36.2,00:27.0
235,236,236,19.28505367,-99.14051783,0.572998047,0.033447266,0.534667969,16:36.2,00:27.0
236,237,237,19.28505367,-99.14051783,0.086669922,-0.010742188,0.836669922,16:36.2,00:27.0
237,238,238,19.28505367,-99.14051783,0.155273438,0.035400391,0.991699219,16:36.3,00:27.1
238,239,239,19.28505367,-99.14051783,0.243896484,-0.046630859,0.955078125,16:36.3,00:27.1
239,240,240,19.28505367,-99.14051783,0.171386719,-0.138916016,1.115478516,16:36.3,00:27.1
240,241,241,19.28496767,-99.14052917,-0.342285156,-0.201660156,1.261474609,16:36.3,00:27.1
241,242,242,19.28496767,-99.14052917,-0.174804688,-0.669921875,1.336181641,16:36.3,00:27.1
242,243,243,19.28496767,-99.14052917,0.66015625,0.205810547,0.644287109,16:36.4,00:27.2
243,244,244,19.28496767,-99.14052917,0.399658203,0.09375,1.00390625,16:36.4,00:27.2
244,245,245,19.28496767,-99.14052917,0.134033203,0.212890625,0.817138672,16:36.5,00:27.3
245,246,246,19.28496767,-99.14052917,0.212646484,0.059570313,0.821289063,16:36.6,00:27.4
246,247,247,19.28496767,-99.14052917,0.125244141,-0.029296875,0.893066406,16:36.6,00:27.4
247,248,248,19.28496767,-99.14052917,0.152832031,-0.050048828,0.927490234,16:36.7,00:27.5
248,249,249,19.28496767,-99.14052917,-0.116455078,0.078613281,0.960693359,16:36.7,00:27.6
249,250,250,19.28488233,-99.14054583,0.020507813,0.000244141,0.883300781,16:37.2,00:28.0
210,211,211,19.28530533,-99.14048283,0.118408203,0.071777344,0.887695313,16:33.1,00:23.9
211,212,212,19.28530533,-99.14048283,0.001220703,0.110107422,0.925048828,16:33.1,00:23.9
212,213,213,19.28530533,-99.14048283,0.056884766,0.092285156,0.935058594,16:33.1,00:23.9
213,214,214,19.28522183,-99.14049783,0.166259766,0.004394531,0.918701172,16:33.2,00:24.0
214,215,215,19.28522183,-99.14049783,0.172851563,0.074951172,0.876464844,16:33.3,00:24.1
215,216,216,19.28522183,-99.14049783,0.053710938,0.108398438,0.919189453,16:33.4,00:24.2
216,217,217,19.28522183,-99.14049783,0.075439453,0.122558594,0.866455078,16:33.4,00:24.2
217,218,218,19.28522183,-99.14049783,0.206054688,0.046386719,0.877441406,16:33.5,00:24.3
218,219,219,19.28522183,-99.14049783,0.128173828,0.070800781,0.850341797,16:33.6,00:24.4
219,220,220,19.28522183,-99.14049783,0.115966797,0.122802734,0.895507813,16:33.6,00:24.4
220,221,221,19.28522183,-99.14049783,0.117675781,0.108398438,0.972900391,16:33.7,00:24.5
221,222,222,19.28522183,-99.14049783,0.067626953,0.047607422,0.979736328,16:33.7,00:24.6
222,223,223,19.285138,-99.14050883,0.109863281,0.031738281,0.907958984,16:34.2,00:25.0
223,224,224,19.285138,-99.14050883,0.062255859,0.071289063,0.885009766,16:34.3,00:25.1
224,225,225,19.285138,-99.14050883,0.136474609,0.168457031,0.892578125,16:34.3,00:25.1
225,226,226,19.285138,-99.14050883,-1.112548828,0.639892578,1.234619141,16:36.0,00:26.8
226,227,227,19.285138,-99.14050883,-0.337158203,0.134033203,1.043701172,16:36.1,00:26.9
227,228,228,19.285138,-99.14050883,0.045654297,-0.079101563,0.991943359,16:36.1,00:26.9
228,229,229,19.285138,-99.14050883,-0.051513672,0.382324219,1.013916016,16:36.1,00:26.9
229,230,230,19.285138,-99.14050883,0.055175781,0.573486328,0.965332031,16:36.1,00:26.9
230,231,231,19.285138,-99.14050883,0.239257813,0.159912109,0.961181641,16:36.1,00:26.9
231,232,232,19.28505367,-99.14051783,0.255615234,-0.116455078,1.074462891,16:36.2,00:27.0
232,233,233,19.28505367,-99.14051783,0.352539063,0.042236328,0.867675781,16:36.2,00:27.0
233,234,234,19.28505367,-99.14051783,0.448974609,0.356689453,0.729736328,16:36.2,00:27.0
234,235,235,19.28505367,-99.14051783,0.539794922,0.594970703,0.5625,16:36.2,00:27.0
235,236,236,19.28505367,-99.14051783,0.572998047,0.033447266,0.534667969,16:36.2,00:27.0
236,237,237,19.28505367,-99.14051783,0.086669922,-0.010742188,0.836669922,16:36.2,00:27.0
237,238,238,19.28505367,-99.14051783,0.155273438,0.035400391,0.991699219,16:36.3,00:27.1
238,239,239,19.28505367,-99.14051783,0.243896484,-0.046630859,0.955078125,16:36.3,00:27.1
239,240,240,19.28505367,-99.14051783,0.171386719,-0.138916016,1.115478516,16:36.3,00:27.1
240,241,241,19.28496767,-99.14052917,-0.342285156,-0.201660156,1.261474609,16:36.3,00:27.1
241,242,242,19.28496767,-99.14052917,-0.174804688,-0.669921875,1.336181641,16:36.3,00:27.1
242,243,243,19.28496767,-99.14052917,0.66015625,0.205810547,0.644287109,16:36.4,00:27.2
243,244,244,19.28496767,-99.14052917,0.399658203,0.09375,1.00390625,16:36.4,00:27.2
244,245,245,19.28496767,-99.14052917,0.134033203,0.212890625,0.817138672,16:36.5,00:27.3
245,246,246,19.28496767,-99.14052917,0.212646484,0.059570313,0.821289063,16:36.6,00:27.4
246,247,247,19.28496767,-99.14052917,0.125244141,-0.029296875,0.893066406,16:36.6,00:27.4
247,248,248,19.28496767,-99.14052917,0.152832031,-0.050048828,0.927490234,16:36.7,00:27.5
248,249,249,19.28496767,-99.14052917,-0.116455078,0.078613281,0.960693359,16:36.7,00:27.6
249,250,250,19.28488233,-99.14054583,0.020507813,0.000244141,0.883300781,16:37.2,00:28.0
210,211,211,19.28530533,-99.14048283,0.118408203,0.071777344,0.887695313,16:33.1,00:23.9
211,212,212,19.28530533,-99.14048283,0.001220703,0.110107422,0.925048828,16:33.1,00:23.9
212,213,213,19.28530533,-99.14048283,0.056884766,0.092285156,0.935058594,16:33.1,00:23.9
213,214,214,19.28522183,-99.14049783,0.166259766,0.004394531,0.918701172,16:33.2,00:24.0
214,215,215,19.28522183,-99.14049783,0.172851563,0.074951172,0.876464844,16:33.3,00:24.1
215,216,216,19.28522183,-99.14049783,0.053710938,0.108398438,0.919189453,16:33.4,00:24.2
216,217,217,19.28522183,-99.14049783,0.075439453,0.122558594,0.866455078,16:33.4,00:24.2
217,218,218,19.28522183,-99.14049783,0.206054688,0.046386719,0.877441406,16:33.5,00:24.3
218,219,219,19.28522183,-99.14049783,0.128173828,0.070800781,0.850341797,16:33.6,00:24.4
219,220,220,19.28522183,-99.14049783,0.115966797,0.122802734,0.895507813,16:33.6,00:24.4
220,221,221,19.28522183,-99.14049783,0.117675781,0.108398438,0.972900391,16:33.7,00:24.5
221,222,222,19.28522183,-99.14049783,0.067626953,0.047607422,0.979736328,16:33.7,00:24.6
222,223,223,19.285138,-99.14050883,0.109863281,0.031738281,0.907958984,16:34.2,00:25.0
223,224,224,19.285138,-99.14050883,0.062255859,0.071289063,0.885009766,16:34.3,00:25.1
224,225,225,19.285138,-99.14050883,0.136474609,0.168457031,0.892578125,16:34.3,00:25.1
225,226,226,19.285138,-99.14050883,-1.112548828,0.639892578,1.234619141,16:36.0,00:26.8
226,227,227,19.285138,-99.14050883,-0.337158203,0.134033203,1.043701172,16:36.1,00:26.9
227,228,228,19.285138,-99.14050883,0.045654297,-0.079101563,0.991943359,16:36.1,00:26.9
228,229,229,19.285138,-99.14050883,-0.051513672,0.382324219,1.013916016,16:36.1,00:26.9
229,230,230,19.285138,-99.14050883,0.055175781,0.573486328,0.965332031,16:36.1,00:26.9
230,231,231,19.285138,-99.14050883,0.239257813,0.159912109,0.961181641,16:36.1,00:26.9
231,232,232,19.28505367,-99.14051783,0.255615234,-0.116455078,1.074462891,16:36.2,00:27.0
232,233,233,19.28505367,-99.14051783,0.352539063,0.042236328,0.867675781,16:36.2,00:27.0
233,234,234,19.28505367,-99.14051783,0.448974609,0.356689453,0.729736328,16:36.2,00:27.0
234,235,235,19.28505367,-99.14051783,0.539794922,0.594970703,0.5625,16:36.2,00:27.0
235,236,236,19.28505367,-99.14051783,0.572998047,0.033447266,0.534667969,16:36.2,00:27.0
236,237,237,19.28505367,-99.14051783,0.086669922,-0.010742188,0.836669922,16:36.2,00:27.0
237,238,238,19.28505367,-99.14051783,0.155273438,0.035400391,0.991699219,16:36.3,00:27.1
238,239,239,19.28505367,-99.14051783,0.243896484,-0.046630859,0.955078125,16:36.3,00:27.1
239,240,240,19.28505367,-99.14051783,0.171386719,-0.138916016,1.115478516,16:36.3,00:27.1
240,241,241,19.28496767,-99.14052917,-0.342285156,-0.201660156,1.261474609,16:36.3,00:27.1
241,242,242,19.28496767,-99.14052917,-0.174804688,-0.669921875,1.336181641,16:36.3,00:27.1
242,243,243,19.28496767,-99.14052917,0.66015625,0.205810547,0.644287109,16:36.4,00:27.2
243,244,244,19.28496767,-99.14052917,0.399658203,0.09375,1.00390625,16:36.4,00:27.2
244,245,245,19.28496767,-99.14052917,0.134033203,0.212890625,0.817138672,16:36.5,00:27.3
245,246,246,19.28496767,-99.14052917,0.212646484,0.059570313,0.821289063,16:36.6,00:27.4
246,247,247,19.28496767,-99.14052917,0.125244141,-0.029296875,0.893066406,16:36.6,00:27.4
247,248,248,19.28496767,-99.14052917,0.152832031,-0.050048828,0.927490234,16:36.7,00:27.5
248,249,249,19.28496767,-99.14052917,-0.116455078,0.078613281,0.960693359,16:36.7,00:27.6
249,250,250,19.28488233,-99.14054583,0.020507813,0.000244141,0.883300781,16:37.2,00:28.0
210,211,211,19.28530533,-99.14048283,0.118408203,0.071777344,0.887695313,16:33.1,00:23.9
211,212,212,19.28530533,-99.14048283,0.001220703,0.110107422,0.925048828,16:33.1,00:23.9
212,213,213,19.28530533,-99.14048283,0.056884766,0.092285156,0.935058594,16:33.1,00:23.9
213,214,214,19.28522183,-99.14049783,0.166259766,0.004394531,0.918701172,16:33.2,00:24.0
214,215,215,19.28522183,-99.14049783,0.172851563,0.074951172,0.876464844,16:33.3,00:24.1
215,216,216,19.28522183,-99.14049783,0.053710938,0.108398438,0.919189453,16:33.4,00:24.2
216,217,217,19.28522183,-99.14049783,0.075439453,0.122558594,0.866455078,16:33.4,00:24.2
217,218,218,19.28522183,-99.14049783,0.206054688,0.046386719,0.877441406,16:33.5,00:24.3
218,219,219,19.28522183,-99.14049783,0.128173828,0.070800781,0.850341797,16:33.6,00:24.4
219,220,220,19.28522183,-99.14049783,0.115966797,0.122802734,0.895507813,16:33.6,00:24.4
220,221,221,19.28522183,-99.14049783,0.117675781,0.108398438,0.972900391,16:33.7,00:24.5
221,222,222,19.28522183,-99.14049783,0.067626953,0.047607422,0.979736328,16:33.7,00:24.6
222,223,223,19.285138,-99.14050883,0.109863281,0.031738281,0.907958984,16:34.2,00:25.0
223,224,224,19.285138,-99.14050883,0.062255859,0.071289063,0.885009766,16:34.3,00:25.1
224,225,225,19.285138,-99.14050883,0.136474609,0.168457031,0.892578125,16:34.3,00:25.1
225,226,226,19.285138,-99.14050883,-1.112548828,0.639892578,1.234619141,16:36.0,00:26.8
226,227,227,19.285138,-99.14050883,-0.337158203,0.134033203,1.043701172,16:36.1,00:26.9
227,228,228,19.285138,-99.14050883,0.045654297,-0.079101563,0.991943359,16:36.1,00:26.9
228,229,229,19.285138,-99.14050883,-0.051513672,0.382324219,1.013916016,16:36.1,00:26.9
229,230,230,19.285138,-99.14050883,0.055175781,0.573486328,0.965332031,16:36.1,00:26.9
40,41,41,19.28506667,-99.1405565,0.165771484,0.004150391,0.933837891,24:41.8,00:04.7
41,42,42,19.28506667,-99.1405565,-0.003173828,0.0390625,0.969482422,24:41.9,00:04.8
42,43,43,19.28506667,-99.1405565,0.091308594,0.01171875,0.922607422,24:41.9,00:04.9
43,44,44,19.28506667,-99.1405565,0.048095703,0.000488281,0.924560547,24:42.0,00:04.9
44,45,45,19.28506667,-99.1405565,0.092773438,0.052001953,0.931152344,24:42.1,00:05.0
45,46,46,19.28506667,-99.1405565,0.127197266,0.059814453,0.963378906,24:42.2,00:05.1
46,47,47,19.28506667,-99.1405565,0.205322266,-0.014648438,0.848144531,24:42.2,00:05.2
47,48,48,19.28506667,-99.1405565,0.802001953,-0.125732422,0.691894531,24:42.3,00:05.2
48,49,49,19.28500733,-99.140561,0.211181641,-0.087402344,1.067138672,24:42.8,00:05.7
49,50,50,19.28500733,-99.140561,-0.250732422,-0.766845703,1.311279297,24:42.8,00:05.7
50,51,51,19.28500733,-99.140561,0.155029297,-0.050292969,0.863769531,24:43.9,00:06.9
51,52,52,19.28500733,-99.140561,0.101806641,-0.020019531,0.922119141,24:43.9,00:06.9
52,53,53,19.28500733,-99.140561,0.180908203,-0.072021484,0.786376953,24:44.0,00:06.9
53,54,54,19.28500733,-99.140561,0.122802734,0.0078125,0.889892578,24:44.0,00:06.9
54,55,55,19.28500733,-99.140561,0.157714844,-0.022949219,0.737304688,24:44.0,00:06.9
55,56,56,19.28500733,-99.140561,0.071044922,-0.015380859,0.913330078,24:44.0,00:06.9
56,57,57,19.28500733,-99.140561,0.077392578,-0.032958984,0.761474609,24:44.0,00:07.0
57,58,58,19.284942,-99.14056317,0.134765625,0.012451172,0.832275391,24:44.0,00:07.0
58,59,59,19.284942,-99.14056317,0.068603516,0.031982422,0.869873047,24:44.1,00:07.0
59,60,60,19.284942,-99.14056317,-0.022705078,0.071533203,0.958496094,24:44.1,00:07.0
40,41,41,19.28506667,-99.1405565,0.165771484,0.004150391,0.933837891,24:41.8,00:04.7
41,42,42,19.28506667,-99.1405565,-0.003173828,0.0390625,0.969482422,24:41.9,00:04.8
42,43,43,19.28506667,-99.1405565,0.091308594,0.01171875,0.922607422,24:41.9,00:04.9
43,44,44,19.28506667,-99.1405565,0.048095703,0.000488281,0.924560547,24:42.0,00:04.9
44,45,45,19.28506667,-99.1405565,0.092773438,0.052001953,0.931152344,24:42.1,00:05.0
45,46,46,19.28506667,-99.1405565,0.127197266,0.059814453,0.963378906,24:42.2,00:05.1
46,47,47,19.28506667,-99.1405565,0.205322266,-0.014648438,0.848144531,24:42.2,00:05.2
47,48,48,19.28506667,-99.1405565,0.802001953,-0.125732422,0.691894531,24:42.3,00:05.2
48,49,49,19.28500733,-99.140561,0.211181641,-0.087402344,1.067138672,24:42.8,00:05.7
49,50,50,19.28500733,-99.140561,-0.250732422,-0.766845703,1.311279297,24:42.8,00:05.7
50,51,51,19.28500733,-99.140561,0.155029297,-0.050292969,0.863769531,24:43.9,00:06.9
51,52,52,19.28500733,-99.140561,0.101806641,-0.020019531,0.922119141,24:43.9,00:06.9
52,53,53,19.28500733,-99.140561,0.180908203,-0.072021484,0.786376953,24:44.0,00:06.9
53,54,54,19.28500733,-99.140561,0.122802734,0.0078125,0.889892578,24:44.0,00:06.9
54,55,55,19.28500733,-99.140561,0.157714844,-0.022949219,0.737304688,24:44.0,00:06.9
55,56,56,19.28500733,-99.140561,0.071044922,-0.015380859,0.913330078,24:44.0,00:06.9
56,57,57,19.28500733,-99.140561,0.077392578,-0.032958984,0.761474609,24:44.0,00:07.0
57,58,58,19.284942,-99.14056317,0.134765625,0.012451172,0.832275391,24:44.0,00:07.0
58,59,59,19.284942,-99.14056317,0.068603516,0.031982422,0.869873047,24:44.1,00:07.0
59,60,60,19.284942,-99.14056317,-0.022705078,0.071533203,0.958496094,24:44.1,00:07.0
40,41,41,19.28506667,-99.1405565,0.165771484,0.004150391,0.933837891,24:41.8,00:04.7
41,42,42,19.28506667,-99.1405565,-0.003173828,0.0390625,0.969482422,24:41.9,00:04.8
42,43,43,19.28506667,-99.1405565,0.091308594,0.01171875,0.922607422,24:41.9,00:04.9
43,44,44,19.28506667,-99.1405565,0.048095703,0.000488281,0.924560547,24:42.0,00:04.9
44,45,45,19.28506667,-99.1405565,0.092773438,0.052001953,0.931152344,24:42.1,00:05.0
45,46,46,19.28506667,-99.1405565,0.127197266,0.059814453,0.963378906,24:42.2,00:05.1
46,47,47,19.28506667,-99.1405565,0.205322266,-0.014648438,0.848144531,24:42.2,00:05.2
47,48,48,19.28506667,-99.1405565,0.802001953,-0.125732422,0.691894531,24:42.3,00:05.2
48,49,49,19.28500733,-99.140561,0.211181641,-0.087402344,1.067138672,24:42.8,00:05.7
49,50,50,19.28500733,-99.140561,-0.250732422,-0.766845703,1.311279297,24:42.8,00:05.7
50,51,51,19.28500733,-99.140561,0.155029297,-0.050292969,0.863769531,24:43.9,00:06.9
51,52,52,19.28500733,-99.140561,0.101806641,-0.020019531,0.922119141,24:43.9,00:06.9
52,53,53,19.28500733,-99.140561,0.180908203,-0.072021484,0.786376953,24:44.0,00:06.9
53,54,54,19.28500733,-99.140561,0.122802734,0.0078125,0.889892578,24:44.0,00:06.9
54,55,55,19.28500733,-99.140561,0.157714844,-0.022949219,0.737304688,24:44.0,00:06.9
55,56,56,19.28500733,-99.140561,0.071044922,-0.015380859,0.913330078,24:44.0,00:06.9
56,57,57,19.28500733,-99.140561,0.077392578,-0.032958984,0.761474609,24:44.0,00:07.0
57,58,58,19.284942,-99.14056317,0.134765625,0.012451172,0.832275391,24:44.0,00:07.0
58,59,59,19.284942,-99.14056317,0.068603516,0.031982422,0.869873047,24:44.1,00:07.0
59,60,60,19.284942,-99.14056317,-0.022705078,0.071533203,0.958496094,24:44.1,00:07.0
40,41,41,19.28506667,-99.1405565,0.165771484,0.004150391,0.933837891,24:41.8,00:04.7
41,42,42,19.28506667,-99.1405565,-0.003173828,0.0390625,0.969482422,24:41.9,00:04.8
42,43,43,19.28506667,-99.1405565,0.091308594,0.01171875,0.922607422,24:41.9,00:04.9
43,44,44,19.28506667,-99.1405565,0.048095703,0.000488281,0.924560547,24:42.0,00:04.9
44,45,45,19.28506667,-99.1405565,0.092773438,0.052001953,0.931152344,24:42.1,00:05.0
45,46,46,19.28506667,-99.1405565,0.127197266,0.059814453,0.963378906,24:42.2,00:05.1
46,47,47,19.28506667,-99.1405565,0.205322266,-0.014648438,0.848144531,24:42.2,00:05.2
47,48,48,19.28506667,-99.1405565,0.802001953,-0.125732422,0.691894531,24:42.3,00:05.2
48,49,49,19.28500733,-99.140561,0.211181641,-0.087402344,1.067138672,24:42.8,00:05.7
49,50,50,19.28500733,-99.140561,-0.250732422,-0.766845703,1.311279297,24:42.8,00:05.7
50,51,51,19.28500733,-99.140561,0.155029297,-0.050292969,0.863769531,24:43.9,00:06.9
51,52,52,19.28500733,-99.140561,0.101806641,-0.020019531,0.922119141,24:43.9,00:06.9
52,53,53,19.28500733,-99.140561,0.180908203,-0.072021484,0.786376953,24:44.0,00:06.9
53,54,54,19.28500733,-99.140561,0.122802734,0.0078125,0.889892578,24:44.0,00:06.9
54,55,55,19.28500733,-99.140561,0.157714844,-0.022949219,0.737304688,24:44.0,00:06.9
55,56,56,19.28500733,-99.140561,0.071044922,-0.015380859,0.913330078,24:44.0,00:06.9
56,57,57,19.28500733,-99.140561,0.077392578,-0.032958984,0.761474609,24:44.0,00:07.0
57,58,58,19.284942,-99.14056317,0.134765625,0.012451172,0.832275391,24:44.0,00:07.0
58,59,59,19.284942,-99.14056317,0.068603516,0.031982422,0.869873047,24:44.1,00:07.0
59,60,60,19.284942,-99.14056317,-0.022705078,0.071533203,0.958496094,24:44.1,00:07.0
40,41,41,19.28506667,-99.1405565,0.165771484,0.004150391,0.933837891,24:41.8,00:04.7
41,42,42,19.28506667,-99.1405565,-0.003173828,0.0390625,0.969482422,24:41.9,00:04.8
42,43,43,19.28506667,-99.1405565,0.091308594,0.01171875,0.922607422,24:41.9,00:04.9
43,44,44,19.28506667,-99.1405565,0.048095703,0.000488281,0.924560547,24:42.0,00:04.9
44,45,45,19.28506667,-99.1405565,0.092773438,0.052001953,0.931152344,24:42.1,00:05.0
45,46,46,19.28506667,-99.1405565,0.127197266,0.059814453,0.963378906,24:42.2,00:05.1
46,47,47,19.28506667,-99.1405565,0.205322266,-0.014648438,0.848144531,24:42.2,00:05.2
47,48,48,19.28506667,-99.1405565,0.802001953,-0.125732422,0.691894531,24:42.3,00:05.2
48,49,49,19.28500733,-99.140561,0.211181641,-0.087402344,1.067138672,24:42.8,00:05.7
49,50,50,19.28500733,-99.140561,-0.250732422,-0.766845703,1.311279297,24:42.8,00:05.7
50,51,51,19.28500733,-99.140561,0.155029297,-0.050292969,0.863769531,24:43.9,00:06.9
51,52,52,19.28500733,-99.140561,0.101806641,-0.020019531,0.922119141,24:43.9,00:06.9
52,53,53,19.28500733,-99.140561,0.180908203,-0.072021484,0.786376953,24:44.0,00:06.9
53,54,54,19.28500733,-99.140561,0.122802734,0.0078125,0.889892578,24:44.0,00:06.9
54,55,55,19.28500733,-99.140561,0.157714844,-0.022949219,0.737304688,24:44.0,00:06.9
55,56,56,19.28500733,-99.140561,0.071044922,-0.015380859,0.913330078,24:44.0,00:06.9
56,57,57,19.28500733,-99.140561,0.077392578,-0.032958984,0.761474609,24:44.0,00:07.0
57,58,58,19.284942,-99.14056317,0.134765625,0.012451172,0.832275391,24:44.0,00:07.0
58,59,59,19.284942,-99.14056317,0.068603516,0.031982422,0.869873047,24:44.1,00:07.0
59,60,60,19.284942,-99.14056317,-0.022705078,0.071533203,0.958496094,24:44.1,00:07.0
40,41,41,19.28506667,-99.1405565,0.165771484,0.004150391,0.933837891,24:41.8,00:04.7
41,42,42,19.28506667,-99.1405565,-0.003173828,0.0390625,0.969482422,24:41.9,00:04.8
42,43,43,19.28506667,-99.1405565,0.091308594,0.01171875,0.922607422,24:41.9,00:04.9
43,44,44,19.28506667,-99.1405565,0.048095703,0.000488281,0.924560547,24:42.0,00:04.9
44,45,45,19.28506667,-99.1405565,0.092773438,0.052001953,0.931152344,24:42.1,00:05.0
45,46,46,19.28506667,-99.1405565,0.127197266,0.059814453,0.963378906,24:42.2,00:05.1
46,47,47,19.28506667,-99.1405565,0.205322266,-0.014648438,0.848144531,24:42.2,00:05.2
47,48,48,19.28506667,-99.1405565,0.802001953,-0.125732422,0.691894531,24:42.3,00:05.2
48,49,49,19.28500733,-99.140561,0.211181641,-0.087402344,1.067138672,24:42.8,00:05.7
49,50,50,19.28500733,-99.140561,-0.250732422,-0.766845703,1.311279297,24:42.8,00:05.7
50,51,51,19.28500733,-99.140561,0.155029297,-0.050292969,0.863769531,24:43.9,00:06.9
51,52,52,19.28500733,-99.140561,0.101806641,-0.020019531,0.922119141,24:43.9,00:06.9
52,53,53,19.28500733,-99.140561,0.180908203,-0.072021484,0.786376953,24:44.0,00:06.9
53,54,54,19.28500733,-99.140561,0.122802734,0.0078125,0.889892578,24:44.0,00:06.9
54,55,55,19.28500733,-99.140561,0.157714844,-0.022949219,0.737304688,24:44.0,00:06.9
55,56,56,19.28500733,-99.140561,0.071044922,-0.015380859,0.913330078,24:44.0,00:06.9
56,57,57,19.28500733,-99.140561,0.077392578,-0.032958984,0.761474609,24:44.0,00:07.0
57,58,58,19.284942,-99.14056317,0.134765625,0.012451172,0.832275391,24:44.0,00:07.0
58,59,59,19.284942,-99.14056317,0.068603516,0.031982422,0.869873047,24:44.1,00:07.0
59,60,60,19.284942,-99.14056317,-0.022705078,0.071533203,0.958496094,24:44.1,00:07.0
40,41,41,19.28506667,-99.1405565,0.165771484,0.004150391,0.933837891,24:41.8,00:04.7
41,42,42,19.28506667,-99.1405565,-0.003173828,0.0390625,0.969482422,24:41.9,00:04.8
42,43,43,19.28506667,-99.1405565,0.091308594,0.01171875,0.922607422,24:41.9,00:04.9
43,44,44,19.28506667,-99.1405565,0.048095703,0.000488281,0.924560547,24:42.0,00:04.9
44,45,45,19.28506667,-99.1405565,0.092773438,0.052001953,0.931152344,24:42.1,00:05.0
45,46,46,19.28506667,-99.1405565,0.127197266,0.059814453,0.963378906,24:42.2,00:05.1
46,47,47,19.28506667,-99.1405565,0.205322266,-0.014648438,0.848144531,24:42.2,00:05.2
47,48,48,19.28506667,-99.1405565,0.802001953,-0.125732422,0.691894531,24:42.3,00:05.2
48,49,49,19.28500733,-99.140561,0.211181641,-0.087402344,1.067138672,24:42.8,00:05.7
49,50,50,19.28500733,-99.140561,-0.250732422,-0.766845703,1.311279297,24:42.8,00:05.7
50,51,51,19.28500733,-99.140561,0.155029297,-0.050292969,0.863769531,24:43.9,00:06.9
51,52,52,19.28500733,-99.140561,0.101806641,-0.020019531,0.922119141,24:43.9,00:06.9
52,53,53,19.28500733,-99.140561,0.180908203,-0.072021484,0.786376953,24:44.0,00:06.9
53,54,54,19.28500733,-99.140561,0.122802734,0.0078125,0.889892578,24:44.0,00:06.9
54,55,55,19.28500733,-99.140561,0.157714844,-0.022949219,0.737304688,24:44.0,00:06.9
55,56,56,19.28500733,-99.140561,0.071044922,-0.015380859,0.913330078,24:44.0,00:06.9
56,57,57,19.28500733,-99.140561,0.077392578,-0.032958984,0.761474609,24:44.0,00:07.0
57,58,58,19.284942,-99.14056317,0.134765625,0.012451172,0.832275391,24:44.0,00:07.0
58,59,59,19.284942,-99.14056317,0.068603516,0.031982422,0.869873047,24:44.1,00:07.0
59,60,60,19.284942,-99.14056317,-0.022705078,0.071533203,0.958496094,24:44.1,00:07.0
40,41,41,19.28506667,-99.1405565,0.165771484,0.004150391,0.933837891,24:41.8,00:04.7
41,42,42,19.28506667,-99.1405565,-0.003173828,0.0390625,0.969482422,24:41.9,00:04.8
42,43,43,19.28506667,-99.1405565,0.091308594,0.01171875,0.922607422,24:41.9,00:04.9
43,44,44,19.28506667,-99.1405565,0.048095703,0.000488281,0.924560547,24:42.0,00:04.9
44,45,45,19.28506667,-99.1405565,0.092773438,0.052001953,0.931152344,24:42.1,00:05.0
45,46,46,19.28506667,-99.1405565,0.127197266,0.059814453,0.963378906,24:42.2,00:05.1
46,47,47,19.28506667,-99.1405565,0.205322266,-0.014648438,0.848144531,24:42.2,00:05.2
47,48,48,19.28506667,-99.1405565,0.802001953,-0.125732422,0.691894531,24:42.3,00:05.2
48,49,49,19.28500733,-99.140561,0.211181641,-0.087402344,1.067138672,24:42.8,00:05.7
49,50,50,19.28500733,-99.140561,-0.250732422,-0.766845703,1.311279297,24:42.8,00:05.7
50,51,51,19.28500733,-99.140561,0.155029297,-0.050292969,0.863769531,24:43.9,00:06.9
51,52,52,19.28500733,-99.140561,0.101806641,-0.020019531,0.922119141,24:43.9,00:06.9
52,53,53,19.28500733,-99.140561,0.180908203,-0.072021484,0.786376953,24:44.0,00:06.9
53,54,54,19.28500733,-99.140561,0.122802734,0.0078125,0.889892578,24:44.0,00:06.9
54,55,55,19.28500733,-99.140561,0.157714844,-0.022949219,0.737304688,24:44.0,00:06.9
55,56,56,19.28500733,-99.140561,0.071044922,-0.015380859,0.913330078,24:44.0,00:06.9
56,57,57,19.28500733,-99.140561,0.077392578,-0.032958984,0.761474609,24:44.0,00:07.0
57,58,58,19.284942,-99.14056317,0.134765625,0.012451172,0.832275391,24:44.0,00:07.0
58,59,59,19.284942,-99.14056317,0.068603516,0.031982422,0.869873047,24:44.1,00:07.0
59,60,60,19.284942,-99.14056317,-0.022705078,0.071533203,0.958496094,24:44.1,00:07.0
40,41,41,19.28506667,-99.1405565,0.165771484,0.004150391,0.933837891,24:41.8,00:04.7
41,42,42,19.28506667,-99.1405565,-0.003173828,0.0390625,0.969482422,24:41.9,00:04.8
42,43,43,19.28506667,-99.1405565,0.091308594,0.01171875,0.922607422,24:41.9,00:04.9
43,44,44,19.28506667,-99.1405565,0.048095703,0.000488281,0.924560547,24:42.0,00:04.9
44,45,45,19.28506667,-99.1405565,0.092773438,0.052001953,0.931152344,24:42.1,00:05.0
45,46,46,19.28506667,-99.1405565,0.127197266,0.059814453,0.963378906,24:42.2,00:05.1
46,47,47,19.28506667,-99.1405565,0.205322266,-0.014648438,0.848144531,24:42.2,00:05.2
47,48,48,19.28506667,-99.1405565,0.802001953,-0.125732422,0.691894531,24:42.3,00:05.2
48,49,49,19.28500733,-99.140561,0.211181641,-0.087402344,1.067138672,24:42.8,00:05.7
49,50,50,19.28500733,-99.140561,-0.250732422,-0.766845703,1.311279297,24:42.8,00:05.7
50,51,51,19.28500733,-99.140561,0.155029297,-0.050292969,0.863769531,24:43.9,00:06.9
51,52,52,19.28500733,-99.140561,0.101806641,-0.020019531,0.922119141,24:43.9,00:06.9
52,53,53,19.28500733,-99.140561,0.180908203,-0.072021484,0.786376953,24:44.0,00:06.9
53,54,54,19.28500733,-99.140561,0.122802734,0.0078125,0.889892578,24:44.0,00:06.9
54,55,55,19.28500733,-99.140561,0.157714844,-0.022949219,0.737304688,24:44.0,00:06.9
55,56,56,19.28500733,-99.140561,0.071044922,-0.015380859,0.913330078,24:44.0,00:06.9
56,57,57,19.28500733,-99.140561,0.077392578,-0.032958984,0.761474609,24:44.0,00:07.0
57,58,58,19.284942,-99.14056317,0.134765625,0.012451172,0.832275391,24:44.0,00:07.0
