,countOBU,countRSU,latitude,longitude,Ax,Ay,Az,datetime,timeFromBeginning
194,195,195,19.28459117,-99.14060183,0.083251953,0.052490234,1.005615234,21:58.3,00:21.5
195,196,196,19.284533,-99.14060417,0.177001953,0.129150391,0.868652344,21:58.8,00:21.9
196,197,197,19.284533,-99.14060417,0.157714844,0.116943359,0.895019531,21:58.8,00:22.0
197,198,198,19.284533,-99.14060417,0.105957031,0.082763672,0.979003906,21:58.9,00:22.0
198,199,199,19.284533,-99.14060417,0.150146484,0.187988281,1.026855469,21:58.9,00:22.1
199,200,200,19.284533,-99.14060417,0.082519531,0.132324219,0.914794922,21:59.0,00:22.2
200,201,201,19.284533,-99.14060417,0.03515625,0.229736328,0.861572266,22:00.2,00:23.4
201,202,202,19.284533,-99.14060417,0.100585938,0.176025391,0.881347656,22:00.2,00:23.4
202,203,203,19.284533,-99.14060417,0.139892578,0.126953125,0.903808594,22:00.2,00:23.4
203,204,204,19.284533,-99.14060417,0.096923828,0.218261719,0.934326172,22:00.2,00:23.4
204,205,205,19.28447683,-99.14060983,0.154785156,0.197265625,0.873779297,22:00.2,00:23.4
205,206,206,19.28447683,-99.14060983,0.185058594,0.227294922,0.865234375,22:00.3,00:23.4
206,207,207,19.28447683,-99.14060983,0.310791016,0.302978516,0.872558594,22:00.3,00:23.5
207,208,208,19.28447683,-99.14060983,0.349609375,0.217773438,0.815673828,22:00.3,00:23.5
208,209,209,19.28447683,-99.14060983,0.336181641,0.194580078,0.869873047,22:00.3,00:23.5
209,210,210,19.28447683,-99.14060983,0.359130859,0.171142578,0.8046875,22:00.3,00:23.5
210,211,211,19.28447683,-99.14060983,0.271240234,0.178466797,0.882080078,22:00.4,00:23.5
211,212,212,19.28447683,-99.14060983,0.280761719,0.168457031,0.806884766,22:00.4,00:23.5
212,213,213,19.28447683,-99.14060983,0.239746094,0.197753906,0.874267578,22:00.4,00:23.6
213,214,214,19.2844255,-99.14061533,0.080810547,0.202636719,0.957763672,22:00.8,00:23.9
214,215,215,19.2844255,-99.14061533,0.127929688,0.246582031,0.884765625,22:00.8,00:24.0
215,216,216,19.2844255,-99.14061533,0.099365234,0.264892578,0.8828125,22:00.9,00:24.0
216,217,217,19.2844255,-99.14061533,0.164306641,0.225341797,0.844482422,22:00.9,00:24.1
217,218,218,19.2844255,-99.14061533,0.154052734,0.215820313,0.91796875,22:01.0,00:24.2
218,219,219,19.2844255,-99.14061533,0.203613281,0.226806641,0.899414063,22:01.1,00:24.3
219,220,220,19.2844255,-99.14061533,0.143066406,0.263427734,0.965087891,22:01.2,00:24.3
220,221,221,19.2844255,-99.14061533,0.064453125,0.304443359,0.948974609,22:01.2,00:24.4
221,222,222,19.2844255,-99.14061533,0.058349609,0.310058594,1.009277344,22:01.3,00:24.4
222,223,223,19.28438583,-99.140615,0.003417969,0.1328125,0.954589844,22:01.8,00:24.9
223,224,224,19.28438583,-99.140615,0.000244141,0.578125,1.094726563,22:01.8,00:25.0
224,225,225,19.28438583,-99.140615,0.189941406,0.474365234,1.178222656,22:01.9,00:25.0
225,226,226,19.28438583,-99.140615,0.280029297,0.173828125,0.841308594,22:03.2,00:26.4
226,227,227,19.28438583,-99.140615,0.324707031,0.150878906,0.911865234,22:03.2,00:26.4
227,228,228,19.28438583,-99.140615,0.328369141,0.112304688,0.819824219,22:03.2,00:26.4
228,229,229,19.28438583,-99.140615,0.333984375,0.151611328,0.808105469,22:03.2,00:26.4
229,230,230,19.28438583,-99.140615,0.365478516,0.174072266,0.845703125,22:03.2,00:26.4
230,231,231,19.28438583,-99.140615,0.391845703,0.178466797,0.833496094,22:03.3,00:26.4
231,232,232,19.28434967,-99.14062617,0.348144531,0.118408203,0.845458984,22:03.3,00:26.4
232,233,233,19.28434967,-99.14062617,0.350585938,0.116210938,0.807373047,22:03.3,00:26.5
233,234,234,19.28434967,-99.14062617,0.383544922,0.143554688,0.772216797,22:03.3,00:26.5
234,235,235,19.28434967,-99.14062617,0.187255859,0.095703125,0.796142578,22:03.6,00:26.7
235,236,236,19.28434967,-99.14062617,0.116943359,0.068115234,0.842285156,22:03.6,00:26.8
236,237,237,19.28434967,-99.14062617,0.088378906,0.1484375,0.895996094,22:03.6,00:26.8
237,238,238,19.28434967,-99.14062617,-0.023681641,-0.031494141,0.97265625,22:03.6,00:26.8
238,239,239,19.28434967,-99.14062617,0.047119141,0.009521484,0.873779297,22:03.6,00:26.8
239,240,240,19.28434967,-99.14062617,0.033935547,0.212402344,0.931884766,22:03.6,00:26.8
240,241,241,19.28431233,-99.14063417,0.155517578,-0.052978516,1.191894531,22:03.8,00:26.9
241,242,242,19.28431233,-99.14063417,0.294677734,-0.041259766,1.090820313,22:03.8,00:27.0
242,243,243,19.28431233,-99.14063417,0.309814453,0.075195313,0.938720703,22:03.9,00:27.0
243,244,244,19.28431233,-99.14063417,0.355224609,0.156494141,0.790039063,22:03.9,00:27.1
244,245,245,19.28431233,-99.14063417,0.348632813,0.180664063,0.748046875,22:04.0,00:27.2
245,246,246,19.28431233,-99.14063417,0.353271484,0.145263672,0.782958984,22:04.1,00:27.2
246,247,247,19.28431233,-99.14063417,0.310302734,0.116943359,0.876953125,22:04.2,00:27.3
247,248,248,19.28431233,-99.14063417,0.305908203,0.127197266,0.866943359,22:04.2,00:27.4
248,249,249,19.28431233,-99.14063417,0.251220703,0.113037109,0.911621094,22:04.3,00:27.4
249,250,250,19.2842765,-99.14063167,0.380615234,0.071044922,0.765625,22:04.8,00:27.9
250,251,251,19.2842765,-99.14063167,0.094970703,0.321044922,0.952392578,22:07.4,00:30.6
251,252,252,19.2842765,-99.14063167,0.081054688,0.321533203,0.914306641,22:07.5,00:30.6
252,253,253,19.2842765,-99.14063167,0.094482422,0.3046875,0.893798828,22:07.5,00:30.6
253,254,254,19.2842765,-99.14063167,0.109375,0.302734375,0.859375,22:07.5,00:30.7
254,255,255,19.2842765,-99.14063167,0.088623047,0.330566406,0.930908203,22:07.5,00:30.7
255,256,256,19.2842765,-99.14063167,0.084228516,0.324707031,0.907470703,22:07.5,00:30.7
256,257,257,19.2842765,-99.14063167,0.083496094,0.337646484,0.907470703,22:07.5,00:30.7
257,258,258,19.2842765,-99.14063167,0.086181641,0.310546875,0.904296875,22:07.5,00:30.7
258,259,259,19.28423983,-99.140624,0.079589844,0.318115234,0.889160156,22:07.6,00:30.7
259,260,260,19.28423983,-99.140624,0.062744141,0.334716797,0.831787109,22:07.6,00:30.7
260,261,261,19.28423983,-99.140624,0.023925781,0.318115234,0.873779297,22:07.6,00:30.8
261,262,262,19.28423983,-99.140624,0.065917969,0.302490234,0.896240234,22:07.6,00:30.8
262,263,263,19.28423983,-99.140624,0.066650391,0.305175781,0.807128906,22:07.6,00:30.8
263,264,264,19.28423983,-99.140624,0.064208984,0.313964844,0.828613281,22:07.6,00:30.8
264,265,265,19.28423983,-99.140624,0.091308594,0.313964844,0.912353516,22:07.7,00:30.8
265,266,266,19.28423983,-99.140624,0.06640625,0.314941406,0.866699219,22:07.7,00:30.9
266,267,267,19.28423983,-99.140624,0.095703125,0.311523438,0.830566406,22:07.7,00:30.9
267,268,268,19.28421483,-99.14060183,0.068115234,0.340576172,0.828369141,22:07.7,00:30.9
268,269,269,19.28421483,-99.14060183,0.098388672,0.315673828,0.888183594,22:07.7,00:30.9
269,270,270,19.28421483,-99.14060183,0.073486328,0.313964844,0.881591797,22:07.7,00:30.9
270,271,271,19.28421483,-99.14060183,0.083251953,0.337158203,0.896240234,22:07.8,00:30.9
271,272,272,19.28421483,-99.14060183,0.073730469,0.331298828,0.899902344,22:07.8,00:30.9
272,273,273,19.28421483,-99.14060183,0.082763672,0.321777344,0.893066406,22:07.8,00:31.0
273,274,274,19.28421483,-99.14060183,0.080566406,0.313232422,0.78125,22:07.8,00:31.0
274,275,275,19.28421483,-99.14060183,0.092285156,0.320068359,0.936523438,22:07.8,00:31.0
275,276,276,19.28421483,-99.14060183,0.161376953,0.150634766,0.897949219,22:10.1,00:33.2
276,277,277,19.28419717,-99.14057567,0.161621094,0.124755859,0.917236328,22:10.1,00:33.3
277,278,278,19.28419717,-99.14057567,0.155029297,0.12109375,0.890380859,22:10.1,00:33.3
278,279,279,19.28419717,-99.14057567,0.176025391,0.119384766,0.930908203,22:10.2,00:33.4
279,280,280,19.28419717,-99.14057567,0.189941406,0.122802734,0.854248047,22:10.2,00:33.4
280,281,281,19.28419717,-99.14057567,0.183105469,0.126708984,0.878417969,22:10.2,00:33.4
281,282,282,19.28419717,-99.14057567,0.125976563,0.139892578,0.936523438,22:10.3,00:33.5
282,283,283,19.28419717,-99.14057567,0.138671875,0.156005859,0.919921875,22:10.3,00:33.5
283,284,284,19.28419717,-99.14057567,0.134277344,0.094726563,0.921142578,22:10.3,00:33.5
284,285,285,19.28419717,-99.14057567,0.113769531,0.128662109,0.915283203,22:10.4,00:33.6
285,286,286,19.28418967,-99.14055917,0.123291016,0.124755859,0.937011719,22:10.4,00:33.6
286,287,287,19.28418967,-99.14055917,0.126953125,0.107666016,0.848388672,22:10.5,00:33.6
287,288,288,19.28418967,-99.14055917,0.155761719,0.139892578,0.897460938,22:10.5,00:33.7
288,289,289,19.28418967,-99.14055917,0.216308594,0.104248047,0.856445313,22:10.5,00:33.7
289,290,290,19.28418967,-99.14055917,0.175537109,0.135742188,0.919677734,22:10.6,00:33.7
290,291,291,19.28418967,-99.14055917,0.182373047,0.134765625,0.900634766,22:10.6,00:33.7
291,292,292,19.28418967,-99.14055917,0.174804688,0.122558594,0.875976563,22:10.6,00:33.8
292,293,293,19.28418967,-99.14055917,0.178710938,0.1328125,0.906494141,22:10.6,00:33.8
293,294,294,19.28418967,-99.14055917,0.189208984,0.134033203,0.8671875,22:10.6,00:33.8
294,295,295,19.284185,-99.140549,0.223144531,0.12109375,0.901123047,22:10.7,00:33.8
295,296,296,19.284185,-99.140549,0.203613281,0.121826172,0.938964844,22:10.7,00:33.8
296,297,297,19.284185,-99.140549,0.203369141,0.112548828,0.94921875,22:10.7,00:33.9
297,298,298,19.284185,-99.140549,0.231933594,0.138916016,0.935302734,22:10.7,00:33.9
298,299,299,19.284185,-99.140549,0.268310547,0.167236328,0.875976563,22:10.7,00:33.9
299,300,300,19.284185,-99.140549,0.218994141,0.203369141,0.927001953,22:10.8,00:33.9
300,301,301,19.284185,-99.140549,0.336669922,0.019775391,0.9453125,22:12.1,00:35.2
301,302,302,19.284185,-99.140549,0.33203125,-0.052246094,0.996582031,22:12.1,00:35.3
302,303,303,19.284185,-99.140549,0.329833984,-0.008789063,1.052490234,22:12.1,00:35.3
303,304,304,19.284184,-99.14054167,0.385009766,-0.023681641,0.958007813,22:12.1,00:35.3
304,305,305,19.284184,-99.14054167,0.429443359,-0.040039063,0.988525391,22:12.1,00:35.3
305,306,306,19.284184,-99.14054167,0.462890625,-0.031005859,0.889160156,22:12.2,00:35.3
306,307,307,19.284184,-99.14054167,0.422607422,0.0234375,0.864501953,22:12.2,00:35.3
307,308,308,19.284184,-99.14054167,0.311523438,-0.088867188,0.933349609,22:12.2,00:35.3
308,309,309,19.284184,-99.14054167,0.167236328,-0.119628906,1.055175781,22:12.2,00:35.4
309,310,310,19.284184,-99.14054167,0.185791016,-0.098632813,1.047363281,22:12.2,00:35.4
310,311,311,19.284184,-99.14054167,0.191894531,-0.022460938,0.924072266,22:12.2,00:35.4
311,312,312,19.284184,-99.14054167,0.308105469,-0.069335938,0.95703125,22:12.3,00:35.4
312,313,313,19.28418783,-99.1405265,0.254882813,0.001464844,0.893066406,22:12.3,00:35.4
313,314,314,19.28418783,-99.1405265,0.306640625,0.005126953,0.858398438,22:12.3,00:35.4
314,315,315,19.28418783,-99.1405265,0.353515625,0.030273438,0.785400391,22:12.3,00:35.5
315,316,316,19.28418783,-99.1405265,0.447753906,0.076171875,0.804199219,22:12.3,00:35.5
316,317,317,19.28418783,-99.1405265,0.383544922,0.021484375,0.872070313,22:12.3,00:35.5
317,318,318,19.28418783,-99.1405265,0.348388672,-0.061279297,0.961181641,22:12.3,00:35.5
318,319,319,19.28418783,-99.1405265,0.436035156,0.021484375,0.763427734,22:12.4,00:35.5
319,320,320,19.28418783,-99.1405265,0.402099609,0.046386719,0.864990234,22:12.4,00:35.5
320,321,321,19.28418783,-99.1405265,0.418212891,0.028076172,0.812011719,22:12.4,00:35.6
321,322,322,19.28420867,-99.140505,0.37109375,0.00390625,0.938476563,22:12.8,00:35.9
322,323,323,19.28420867,-99.140505,0.351318359,-0.029541016,0.918212891,22:12.8,00:36.0
323,324,324,19.28420867,-99.140505,0.378417969,-0.067138672,0.895263672,22:12.9,00:36.0
324,325,325,19.28420867,-99.140505,0.425048828,0.031982422,0.897949219,22:12.9,00:36.1
325,326,326,19.28420867,-99.140505,0.122802734,0.078613281,0.922119141,22:15.4,00:38.5
326,327,327,19.28420867,-99.140505,0.067138672,0.052734375,1.0,22:15.4,00:38.6
327,328,328,19.28420867,-99.140505,0.110107422,0.091796875,0.917724609,22:15.4,00:38.6
328,329,329,19.28420867,-99.140505,0.033935547,0.158203125,0.919189453,22:15.6,00:38.8
329,330,330,19.28420867,-99.140505,0.049560547,0.148681641,0.973876953,22:15.7,00:38.9
330,331,331,19.28425183,-99.140494,0.072021484,0.115966797,0.954589844,22:15.8,00:38.9
331,332,332,19.28425183,-99.140494,0.065429688,0.113525391,0.903076172,22:15.8,00:38.9
332,333,333,19.28425183,-99.140494,0.099121094,0.093994141,0.927246094,22:15.8,00:39.0
333,334,334,19.28425183,-99.140494,0.121826172,0.086669922,0.905273438,22:15.8,00:39.0
334,335,335,19.28425183,-99.140494,0.129150391,0.078857422,0.908691406,22:15.8,00:39.0
335,336,336,19.28425183,-99.140494,0.145019531,0.110595703,0.999755859,22:15.8,00:39.0
336,337,337,19.28425183,-99.140494,0.150634766,0.071533203,0.949951172,22:15.9,00:39.0
337,338,338,19.28425183,-99.140494,0.161621094,0.103271484,0.856445313,22:15.9,00:39.0
338,339,339,19.28425183,-99.140494,0.148925781,0.109863281,0.952636719,22:15.9,00:39.0
339,340,340,19.28430833,-99.140486,0.136962891,0.080078125,0.939208984,22:15.9,00:39.1
340,341,341,19.28430833,-99.140486,0.151123047,0.002685547,0.790771484,22:15.9,00:39.1
341,342,342,19.28430833,-99.140486,0.134521484,0.034667969,0.872070313,22:15.9,00:39.1
342,343,343,19.28430833,-99.140486,0.122070313,0.083740234,0.860595703,22:15.9,00:39.1
343,344,344,19.28430833,-99.140486,0.137939453,0.094726563,0.906738281,22:16.0,00:39.1
344,345,345,19.28430833,-99.140486,0.153320313,0.057128906,0.990478516,22:16.0,00:39.1
345,346,346,19.28430833,-99.140486,0.179199219,0.047119141,0.955322266,22:16.0,00:39.2
346,347,347,19.28430833,-99.140486,0.185302734,0.0,0.956298828,22:16.0,00:39.2
347,348,348,19.28430833,-99.140486,0.126220703,0.07421875,0.917236328,22:16.0,00:39.2
348,349,349,19.28436583,-99.14047633,0.080566406,0.089111328,0.952392578,22:16.0,00:39.2
349,350,350,19.28436583,-99.14047633,0.109619141,0.072509766,0.917724609,22:16.1,00:39.2
350,351,351,19.28436583,-99.14047633,0.146240234,0.154541016,0.895019531,22:17.3,00:40.5
351,352,352,19.28436583,-99.14047633,0.188964844,0.070800781,0.832519531,22:17.4,00:40.5
352,353,353,19.28436583,-99.14047633,0.122070313,0.153320313,0.964355469,22:17.4,00:40.5
353,354,354,19.28436583,-99.14047633,0.132324219,0.085449219,0.945800781,22:17.4,00:40.5
354,355,355,19.28436583,-99.14047633,0.151855469,0.016357422,0.843994141,22:17.4,00:40.6
355,356,356,19.28436583,-99.14047633,0.156738281,0.033203125,0.850341797,22:17.4,00:40.6
356,357,357,19.28436583,-99.14047633,0.083984375,0.009765625,0.911621094,22:17.4,00:40.6
357,358,358,19.28442417,-99.14046667,0.110839844,0.079101563,0.928466797,22:17.5,00:40.6
358,359,359,19.28442417,-99.14046667,0.096923828,0.045410156,0.852539063,22:17.5,00:40.6
359,360,360,19.28442417,-99.14046667,0.11328125,0.046630859,0.868896484,22:17.5,00:40.6
360,361,361,19.28442417,-99.14046667,0.029052734,0.072509766,0.935791016,22:17.5,00:40.7
361,362,362,19.28442417,-99.14046667,0.056396484,0.034423828,0.980957031,22:17.5,00:40.7
362,363,363,19.28442417,-99.14046667,0.118896484,0.0546875,0.909179688,22:17.5,00:40.7
363,364,364,19.28442417,-99.14046667,0.1875,0.139160156,0.87890625,22:17.6,00:40.7
364,365,365,19.28442417,-99.14046667,0.108398438,0.077392578,0.921142578,22:17.6,00:40.7
365,366,366,19.28442417,-99.14046667,0.081054688,0.087402344,0.89453125,22:17.6,00:40.8
366,367,367,19.2844825,-99.14045717,0.091308594,0.252441406,0.914306641,22:17.8,00:40.9
367,368,368,19.2844825,-99.14045717,0.150146484,0.110351563,0.768066406,22:17.8,00:41.0
368,369,369,19.2844825,-99.14045717,0.303222656,0.045654297,0.875732422,22:17.9,00:41.0
369,370,370,19.2844825,-99.14045717,0.098632813,0.069091797,0.944091797,22:17.9,00:41.1
370,371,371,19.2844825,-99.14045717,0.067138672,0.024414063,1.006347656,22:18.0,00:41.2
371,372,372,19.2844825,-99.14045717,0.053222656,0.028320313,0.982666016,22:18.1,00:41.2
372,373,373,19.2844825,-99.14045717,0.114990234,0.123535156,0.845458984,22:18.2,00:41.3
373,374,374,19.2844825,-99.14045717,0.154541016,0.113769531,0.856445313,22:18.2,00:41.4
374,375,375,19.2844825,-99.14045717,0.139892578,0.133300781,0.9765625,22:18.3,00:41.4
375,376,376,19.28454033,-99.14044867,0.279052734,0.080810547,0.770263672,22:19.4,00:42.6
376,377,377,19.28454033,-99.14044867,0.408935547,-0.336914063,0.798828125,22:19.5,00:42.6
377,378,378,19.28454033,-99.14044867,0.079101563,0.003173828,0.970947266,22:19.5,00:42.6
378,379,379,19.28454033,-99.14044867,-0.292480469,0.058837891,1.113525391,22:19.5,00:42.7
379,380,380,19.28454033,-99.14044867,-0.337402344,0.076171875,1.035644531,22:19.5,00:42.7
380,381,381,19.28454033,-99.14044867,-0.055664063,-0.253662109,0.770019531,22:19.5,00:42.7
381,382,382,19.28454033,-99.14044867,-0.139160156,-0.061279297,0.954833984,22:19.5,00:42.7
382,383,383,19.28454033,-99.14044867,-0.221191406,-0.016601563,1.094726563,22:19.6,00:42.7
383,384,384,19.28454033,-99.14044867,-0.103759766,0.218505859,0.81640625,22:19.6,00:42.7
384,385,385,19.28460217,-99.14044217,0.245849609,0.098144531,0.782958984,22:19.8,00:42.9
385,386,386,19.28460217,-99.14044217,0.304931641,0.044677734,0.725830078,22:19.8,00:43.0
386,387,387,19.28460217,-99.14044217,0.052490234,0.099121094,0.800537109,22:19.9,00:43.0
387,388,388,19.28460217,-99.14044217,0.121826172,-0.074462891,0.958984375,22:19.9,00:43.1
388,389,389,19.28460217,-99.14044217,0.136230469,0.015380859,0.921875,22:20.0,00:43.2
389,390,390,19.28460217,-99.14044217,0.141601563,0.081054688,0.861816406,22:20.1,00:43.2
390,391,391,19.28460217,-99.14044217,0.164794922,0.155761719,0.971191406,22:20.2,00:43.3
391,392,392,19.28460217,-99.14044217,0.126220703,0.000244141,0.8359375,22:20.2,00:43.4
392,393,393,19.28460217,-99.14044217,0.190673828,0.067382813,0.994873047,22:20.3,00:43.4
393,394,394,19.28466917,-99.1404335,0.042724609,0.053466797,0.877929688,22:20.8,00:43.9
194,195,195,19.28459117,-99.14060183,0.083251953,0.052490234,1.005615234,21:58.3,00:21.5
195,196,196,19.284533,-99.14060417,0.177001953,0.129150391,0.868652344,21:58.8,00:21.9
196,197,197,19.284533,-99.14060417,0.157714844,0.116943359,0.895019531,21:58.8,00:22.0
197,198,198,19.284533,-99.14060417,0.105957031,0.082763672,0.979003906,21:58.9,00:22.0
198,199,199,19.284533,-99.14060417,0.150146484,0.187988281,1.026855469,21:58.9,00:22.1
199,200,200,19.284533,-99.14060417,0.082519531,0.132324219,0.914794922,21:59.0,00:22.2
200,201,201,19.284533,-99.14060417,0.03515625,0.229736328,0.861572266,22:00.2,00:23.4
201,202,202,19.284533,-99.14060417,0.100585938,0.176025391,0.881347656,22:00.2,00:23.4
202,203,203,19.284533,-99.14060417,0.139892578,0.126953125,0.903808594,22:00.2,00:23.4
203,204,204,19.284533,-99.14060417,0.096923828,0.218261719,0.934326172,22:00.2,00:23.4
204,205,205,19.28447683,-99.14060983,0.154785156,0.197265625,0.873779297,22:00.2,00:23.4
205,206,206,19.28447683,-99.14060983,0.185058594,0.227294922,0.865234375,22:00.3,00:23.4
206,207,207,19.28447683,-99.14060983,0.310791016,0.302978516,0.872558594,22:00.3,00:23.5
207,208,208,19.28447683,-99.14060983,0.349609375,0.217773438,0.815673828,22:00.3,00:23.5
208,209,209,19.28447683,-99.14060983,0.336181641,0.194580078,0.869873047,22:00.3,00:23.5
209,210,210,19.28447683,-99.14060983,0.359130859,0.171142578,0.8046875,22:00.3,00:23.5
210,211,211,19.28447683,-99.14060983,0.271240234,0.178466797,0.882080078,22:00.4,00:23.5
211,212,212,19.28447683,-99.14060983,0.280761719,0.168457031,0.806884766,22:00.4,00:23.5
212,213,213,19.28447683,-99.14060983,0.239746094,0.197753906,0.874267578,22:00.4,00:23.6
213,214,214,19.2844255,-99.14061533,0.080810547,0.202636719,0.957763672,22:00.8,00:23.9
214,215,215,19.2844255,-99.14061533,0.127929688,0.246582031,0.884765625,22:00.8,00:24.0
215,216,216,19.2844255,-99.14061533,0.099365234,0.264892578,0.8828125,22:00.9,00:24.0
216,217,217,19.2844255,-99.14061533,0.164306641,0.225341797,0.844482422,22:00.9,00:24.1
217,218,218,19.2844255,-99.14061533,0.154052734,0.215820313,0.91796875,22:01.0,00:24.2
218,219,219,19.2844255,-99.14061533,0.203613281,0.226806641,0.899414063,22:01.1,00:24.3
219,220,220,19.2844255,-99.14061533,0.143066406,0.263427734,0.965087891,22:01.2,00:24.3
220,221,221,19.2844255,-99.14061533,0.064453125,0.304443359,0.948974609,22:01.2,00:24.4
221,222,222,19.2844255,-99.14061533,0.058349609,0.310058594,1.009277344,22:01.3,00:24.4
222,223,223,19.28438583,-99.140615,0.003417969,0.1328125,0.954589844,22:01.8,00:24.9
223,224,224,19.28438583,-99.140615,0.000244141,0.578125,1.094726563,22:01.8,00:25.0
224,225,225,19.28438583,-99.140615,0.189941406,0.474365234,1.178222656,22:01.9,00:25.0
225,226,226,19.28438583,-99.140615,0.280029297,0.173828125,0.841308594,22:03.2,00:26.4
226,227,227,19.28438583,-99.140615,0.324707031,0.150878906,0.911865234,22:03.2,00:26.4
227,228,228,19.28438583,-99.140615,0.328369141,0.112304688,0.819824219,22:03.2,00:26.4
228,229,229,19.28438583,-99.140615,0.333984375,0.151611328,0.808105469,22:03.2,00:26.4
229,230,230,19.28438583,-99.140615,0.365478516,0.174072266,0.845703125,22:03.2,00:26.4
230,231,231,19.28438583,-99.140615,0.391845703,0.178466797,0.833496094,22:03.3,00:26.4
231,232,232,19.28434967,-99.14062617,0.348144531,0.118408203,0.845458984,22:03.3,00:26.4
232,233,233,19.28434967,-99.14062617,0.350585938,0.116210938,0.807373047,22:03.3,00:26.5
233,234,234,19.28434967,-99.14062617,0.383544922,0.143554688,0.772216797,22:03.3,00:26.5
234,235,235,19.28434967,-99.14062617,0.187255859,0.095703125,0.796142578,22:03.6,00:26.7
235,236,236,19.28434967,-99.14062617,0.116943359,0.068115234,0.842285156,22:03.6,00:26.8
236,237,237,19.28434967,-99.14062617,0.088378906,0.1484375,0.895996094,22:03.6,00:26.8
237,238,238,19.28434967,-99.14062617,-0.023681641,-0.031494141,0.97265625,22:03.6,00:26.8
238,239,239,19.28434967,-99.14062617,0.047119141,0.009521484,0.873779297,22:03.6,00:26.8
239,240,240,19.28434967,-99.14062617,0.033935547,0.212402344,0.931884766,22:03.6,00:26.8
240,241,241,19.28431233,-99.14063417,0.155517578,-0.052978516,1.191894531,22:03.8,00:26.9
241,242,242,19.28431233,-99.14063417,0.294677734,-0.041259766,1.090820313,22:03.8,00:27.0
242,243,243,19.28431233,-99.14063417,0.309814453,0.075195313,0.938720703,22:03.9,00:27.0
243,244,244,19.28431233,-99.14063417,0.355224609,0.156494141,0.790039063,22:03.9,00:27.1
244,245,245,19.28431233,-99.14063417,0.348632813,0.180664063,0.748046875,22:04.0,00:27.2
245,246,246,19.28431233,-99.14063417,0.353271484,0.145263672,0.782958984,22:04.1,00:27.2
246,247,247,19.28431233,-99.14063417,0.310302734,0.116943359,0.876953125,22:04.2,00:27.3
247,248,248,19.28431233,-99.14063417,0.305908203,0.127197266,0.866943359,22:04.2,00:27.4
248,249,249,19.28431233,-99.14063417,0.251220703,0.113037109,0.911621094,22:04.3,00:27.4
249,250,250,19.2842765,-99.14063167,0.380615234,0.071044922,0.765625,22:04.8,00:27.9
250,251,251,19.2842765,-99.14063167,0.094970703,0.321044922,0.952392578,22:07.4,00:30.6
251,252,252,19.2842765,-99.14063167,0.081054688,0.321533203,0.914306641,22:07.5,00:30.6
252,253,253,19.2842765,-99.14063167,0.094482422,0.3046875,0.893798828,22:07.5,00:30.6
253,254,254,19.2842765,-99.14063167,0.109375,0.302734375,0.859375,22:07.5,00:30.7
254,255,255,19.2842765,-99.14063167,0.088623047,0.330566406,0.930908203,22:07.5,00:30.7
255,256,256,19.2842765,-99.14063167,0.084228516,0.324707031,0.907470703,22:07.5,00:30.7
256,257,257,19.2842765,-99.14063167,0.083496094,0.337646484,0.907470703,22:07.5,00:30.7
257,258,258,19.2842765,-99.14063167,0.086181641,0.310546875,0.904296875,22:07.5,00:30.7
258,259,259,19.28423983,-99.140624,0.079589844,0.318115234,0.889160156,22:07.6,00:30.7
259,260,260,19.28423983,-99.140624,0.062744141,0.334716797,0.831787109,22:07.6,00:30.7
260,261,261,19.28423983,-99.140624,0.023925781,0.318115234,0.873779297,22:07.6,00:30.8
261,262,262,19.28423983,-99.140624,0.065917969,0.302490234,0.896240234,22:07.6,00:30.8
262,263,263,19.28423983,-99.140624,0.066650391,0.305175781,0.807128906,22:07.6,00:30.8
263,264,264,19.28423983,-99.140624,0.064208984,0.313964844,0.828613281,22:07.6,00:30.8
264,265,265,19.28423983,-99.140624,0.091308594,0.313964844,0.912353516,22:07.7,00:30.8
265,266,266,19.28423983,-99.140624,0.06640625,0.314941406,0.866699219,22:07.7,00:30.9
266,267,267,19.28423983,-99.140624,0.095703125,0.311523438,0.830566406,22:07.7,00:30.9
267,268,268,19.28421483,-99.14060183,0.068115234,0.340576172,0.828369141,22:07.7,00:30.9
268,269,269,19.28421483,-99.14060183,0.098388672,0.315673828,0.888183594,22:07.7,00:30.9
269,270,270,19.28421483,-99.14060183,0.073486328,0.313964844,0.881591797,22:07.7,00:30.9
270,271,271,19.28421483,-99.14060183,0.083251953,0.337158203,0.896240234,22:07.8,00:30.9
271,272,272,19.28421483,-99.14060183,0.073730469,0.331298828,0.899902344,22:07.8,00:30.9
272,273,273,19.28421483,-99.14060183,0.082763672,0.321777344,0.893066406,22:07.8,00:31.0
273,274,274,19.28421483,-99.14060183,0.080566406,0.313232422,0.78125,22:07.8,00:31.0
274,275,275,19.28421483,-99.14060183,0.092285156,0.320068359,0.936523438,22:07.8,00:31.0
275,276,276,19.28421483,-99.14060183,0.161376953,0.150634766,0.897949219,22:10.1,00:33.2
276,277,277,19.28419717,-99.14057567,0.161621094,0.124755859,0.917236328,22:10.1,00:33.3
277,278,278,19.28419717,-99.14057567,0.155029297,0.12109375,0.890380859,22:10.1,00:33.3
278,279,279,19.28419717,-99.14057567,0.176025391,0.119384766,0.930908203,22:10.2,00:33.4
279,280,280,19.28419717,-99.14057567,0.189941406,0.122802734,0.854248047,22:10.2,00:33.4
280,281,281,19.28419717,-99.14057567,0.183105469,0.126708984,0.878417969,22:10.2,00:33.4
281,282,282,19.28419717,-99.14057567,0.125976563,0.139892578,0.936523438,22:10.3,00:33.5
282,283,283,19.28419717,-99.14057567,0.138671875,0.156005859,0.919921875,22:10.3,00:33.5
283,284,284,19.28419717,-99.14057567,0.134277344,0.094726563,0.921142578,22:10.3,00:33.5
284,285,285,19.28419717,-99.14057567,0.113769531,0.128662109,0.915283203,22:10.4,00:33.6
285,286,286,19.28418967,-99.14055917,0.123291016,0.124755859,0.937011719,22:10.4,00:33.6
286,287,287,19.28418967,-99.14055917,0.126953125,0.107666016,0.848388672,22:10.5,00:33.6
287,288,288,19.28418967,-99.14055917,0.155761719,0.139892578,0.897460938,22:10.5,00:33.7
288,289,289,19.28418967,-99.14055917,0.216308594,0.104248047,0.856445313,22:10.5,00:33.7
289,290,290,19.28418967,-99.14055917,0.175537109,0.135742188,0.919677734,22:10.6,00:33.7
290,291,291,19.28418967,-99.14055917,0.182373047,0.134765625,0.900634766,22:10.6,00:33.7
291,292,292,19.28418967,-99.14055917,0.174804688,0.122558594,0.875976563,22:10.6,00:33.8
292,293,293,19.28418967,-99.14055917,0.178710938,0.1328125,0.906494141,22:10.6,00:33.8
293,294,294,19.28418967,-99.14055917,0.189208984,0.134033203,0.8671875,22:10.6,00:33.8
100,101,101,19.28464,-99.14060483,0.116943359,0.344238281,0.884033203,24:50.7,00:13.7
101,102,102,19.28464,-99.14060483,0.116455078,0.237792969,0.829101563,24:50.8,00:13.7
102,103,103,19.28456817,-99.1406145,0.178955078,0.267333984,0.833984375,24:50.8,00:13.7
103,104,104,19.28456817,-99.1406145,0.215332031,0.284179688,0.863037109,24:50.8,00:13.7
104,105,105,19.28456817,-99.1406145,0.271484375,0.322265625,0.845703125,24:50.8,00:13.7
105,106,106,19.28456817,-99.1406145,0.320800781,0.316650391,0.803710938,24:50.8,00:13.8
106,107,107,19.28456817,-99.1406145,0.315917969,0.2265625,0.861083984,24:50.8,00:13.8
107,108,108,19.28456817,-99.1406145,0.334228516,0.304199219,0.867431641,24:50.9,00:13.8
108,109,109,19.28456817,-99.1406145,0.279785156,0.249267578,0.771728516,24:50.9,00:13.8
109,110,110,19.28456817,-99.1406145,0.315185547,0.230224609,0.802978516,24:50.9,00:13.8
110,111,111,19.28456817,-99.1406145,0.193847656,0.259521484,0.898681641,24:50.9,00:13.8
111,112,112,19.28449933,-99.14062383,0.137939453,0.185302734,0.830566406,24:50.9,00:13.8
112,113,113,19.28449933,-99.14062383,0.133789063,0.217041016,0.904785156,24:50.9,00:13.9
113,114,114,19.28449933,-99.14062383,0.102539063,0.230712891,0.911621094,24:50.9,00:13.9
114,115,115,19.28449933,-99.14062383,0.141357422,0.172851563,0.847167969,24:51.0,00:13.9
115,116,116,19.28449933,-99.14062383,0.162597656,0.199462891,0.925048828,24:51.0,00:13.9
116,117,117,19.28449933,-99.14062383,0.165283203,0.131103516,0.854248047,24:51.0,00:13.9
117,118,118,19.28449933,-99.14062383,0.118408203,0.187011719,0.994384766,24:51.0,00:14.0
118,119,119,19.28449933,-99.14062383,0.116210938,0.159179688,0.804931641,24:51.0,00:14.0
119,120,120,19.28449933,-99.14062383,0.091308594,0.178466797,1.012939453,24:51.0,00:14.0
120,121,121,19.2844385,-99.14062917,0.089599609,0.182617188,0.993896484,24:51.1,00:14.0
121,122,122,19.2844385,-99.14062917,0.125,0.147216797,0.860595703,24:51.1,00:14.0
122,123,123,19.2844385,-99.14062917,0.048339844,0.160888672,0.954589844,24:51.1,00:14.0
123,124,124,19.2844385,-99.14062917,0.047119141,0.125976563,0.848632813,24:51.1,00:14.0
124,125,125,19.2844385,-99.14062917,0.070800781,0.195556641,0.953125,24:51.1,00:14.1
125,126,126,19.2844385,-99.14062917,-0.037109375,-0.320556641,1.250732422,24:52.8,00:15.7
126,127,127,19.2844385,-99.14062917,0.045654297,-0.022705078,1.090087891,24:52.8,00:15.7
127,128,128,19.2844385,-99.14062917,0.121337891,0.068603516,1.039550781,24:52.8,00:15.7
128,129,129,19.2844385,-99.14062917,-0.053466797,0.045654297,1.034667969,24:52.8,00:15.7
129,130,130,19.28438733,-99.14062817,0.194580078,0.171630859,1.016601563,24:52.8,00:15.8
130,131,131,19.28438733,-99.14062817,0.227050781,-0.047607422,0.959228516,24:52.8,00:15.8
131,132,132,19.28438733,-99.14062817,0.068115234,0.214355469,0.863525391,24:52.9,00:15.8
132,133,133,19.28438733,-99.14062817,0.164550781,0.254394531,0.83203125,24:52.9,00:15.8
133,134,134,19.28438733,-99.14062817,0.081054688,0.178466797,0.961425781,24:52.9,00:15.8
134,135,135,19.28438733,-99.14062817,0.033935547,0.275390625,0.827636719,24:52.9,00:15.8
135,136,136,19.28438733,-99.14062817,0.075683594,0.25,0.794677734,24:52.9,00:15.8
136,137,137,19.28438733,-99.14062817,0.046630859,0.130859375,0.773681641,24:52.9,00:15.9
137,138,138,19.28438733,-99.14062817,0.085693359,0.217041016,0.708251953,24:52.9,00:15.9
138,139,139,19.2843415,-99.14063283,0.127929688,0.227294922,0.652099609,24:53.0,00:15.9
139,140,140,19.2843415,-99.14063283,0.189453125,0.234375,0.683837891,24:53.0,00:15.9
140,141,141,19.2843415,-99.14063283,0.320068359,0.3125,0.623535156,24:53.0,00:15.9
141,142,142,19.2843415,-99.14063283,0.538574219,0.238037109,0.665283203,24:53.0,00:16.0
142,143,143,19.2843415,-99.14063283,0.294921875,0.302490234,0.691650391,24:53.0,00:16.0
143,144,144,19.2843415,-99.14063283,0.101318359,0.302001953,0.8828125,24:53.1,00:16.0
144,145,145,19.2843415,-99.14063283,-0.000732422,0.279296875,0.958984375,24:53.2,00:16.1
145,146,146,19.2843415,-99.14063283,0.072509766,0.363525391,0.881835938,24:53.2,00:16.2
146,147,147,19.2843415,-99.14063283,0.115478516,0.209472656,0.926757813,24:53.3,00:16.2
147,148,148,19.28430017,-99.140642,0.160400391,0.104492188,1.127685547,24:53.8,00:16.7
148,149,149,19.28430017,-99.140642,0.139404297,0.138427734,1.161376953,24:53.8,00:16.7
149,150,150,19.28430017,-99.140642,0.200683594,-0.004638672,1.105224609,24:53.9,00:16.8
150,151,151,19.28430017,-99.140642,0.055175781,0.149414063,0.926025391,24:55.4,00:18.3
151,152,152,19.28430017,-99.140642,0.062011719,0.130126953,0.970214844,24:55.4,00:18.4
152,153,153,19.28430017,-99.140642,0.060546875,0.12890625,1.002197266,24:55.4,00:18.4
153,154,154,19.28430017,-99.140642,0.107177734,0.102783203,0.941650391,24:55.4,00:18.4
154,155,155,19.28430017,-99.140642,0.129882813,0.191162109,0.942138672,24:55.5,00:18.4
155,156,156,19.28430017,-99.140642,0.151123047,0.184082031,0.961669922,24:55.5,00:18.4
156,157,157,19.284262,-99.1406375,0.105712891,0.112548828,0.978759766,24:55.5,00:18.5
157,158,158,19.284262,-99.1406375,0.068359375,0.096435547,0.954101563,24:55.5,00:18.5
158,159,159,19.284262,-99.1406375,0.016113281,0.069824219,0.9296875,24:55.6,00:18.5
159,160,160,19.284262,-99.1406375,0.046875,0.077636719,0.853515625,24:55.6,00:18.5
160,161,161,19.284262,-99.1406375,0.043212891,0.135986328,0.918701172,24:55.6,00:18.5
161,162,162,19.284262,-99.1406375,0.013183594,0.083007813,0.905517578,24:55.6,00:18.5
162,163,163,19.284262,-99.1406375,0.020751953,0.111572266,0.928466797,24:55.6,00:18.5
163,164,164,19.284262,-99.1406375,0.103027344,0.069335938,0.899169922,24:55.6,00:18.6
164,165,165,19.284262,-99.1406375,0.113525391,0.098876953,0.892089844,24:55.6,00:18.6
165,166,166,19.28423,-99.14061817,0.325927734,0.061279297,0.982421875,24:55.8,00:18.7
166,167,167,19.28423,-99.14061817,0.331298828,0.107910156,0.90234375,24:55.8,00:18.7
167,168,168,19.28423,-99.14061817,0.341308594,0.068359375,0.852294922,24:55.9,00:18.8
168,169,169,19.28423,-99.14061817,0.234863281,0.083496094,0.846435547,24:55.9,00:18.9
169,170,170,19.28423,-99.14061817,0.156494141,0.042480469,0.922363281,24:56.0,00:19.0
170,171,171,19.28423,-99.14061817,0.201416016,0.126220703,0.943115234,24:56.1,00:19.0
171,172,172,19.28423,-99.14061817,0.145751953,0.111816406,0.932617188,24:56.2,00:19.1
172,173,173,19.28423,-99.14061817,0.172363281,0.142578125,0.891357422,24:56.2,00:19.1
173,174,174,19.28423,-99.14061817,0.211181641,0.182861328,0.871337891,24:56.3,00:19.2
174,175,175,19.28420083,-99.14058767,0.288818359,0.182861328,0.842529297,24:56.8,00:19.7
175,176,176,19.28420083,-99.14058767,0.590332031,0.214355469,0.839111328,24:58.2,00:21.1
176,177,177,19.28420083,-99.14058767,0.526367188,0.340576172,0.915527344,24:58.2,00:21.1
177,178,178,19.28420083,-99.14058767,0.418701172,0.312011719,1.064941406,24:58.2,00:21.1
178,179,179,19.28420083,-99.14058767,0.404541016,0.312988281,1.04296875,24:58.2,00:21.2
179,180,180,19.28420083,-99.14058767,0.303710938,0.192382813,0.864990234,24:58.2,00:21.2
180,181,181,19.28420083,-99.14058767,0.347167969,0.190429688,0.950683594,24:58.3,00:21.2
181,182,182,19.28420083,-99.14058767,0.370117188,0.208496094,0.841796875,24:58.3,00:21.2
182,183,183,19.28420083,-99.14058767,0.310058594,0.162109375,0.922363281,24:58.3,00:21.2
183,184,184,19.28418433,-99.14055117,0.347412109,0.28515625,0.852294922,24:58.3,00:21.3
184,185,185,19.28418433,-99.14055117,0.501220703,0.218017578,0.910644531,24:58.3,00:21.3
185,186,186,19.28418433,-99.14055117,0.424804688,0.211914063,0.866943359,24:58.4,00:21.3
186,187,187,19.28418433,-99.14055117,0.401855469,0.113525391,0.883300781,24:58.4,00:21.3
187,188,188,19.28418433,-99.14055117,0.418701172,0.152587891,0.792236328,24:58.4,00:21.3
188,189,189,19.28418433,-99.14055117,0.482177734,0.202392578,0.916503906,24:58.4,00:21.3
189,190,190,19.28418433,-99.14055117,0.3671875,0.188232422,0.907470703,24:58.4,00:21.3
190,191,191,19.28418433,-99.14055117,0.431152344,0.186767578,0.820800781,24:58.4,00:21.4
191,192,192,19.28418433,-99.14055117,0.379638672,0.196777344,0.834960938,24:58.5,00:21.4
192,193,193,19.28419783,-99.14051117,0.321044922,-0.059814453,0.919921875,24:58.8,00:21.7
193,194,194,19.28419783,-99.14051117,0.688720703,0.150634766,0.595458984,24:58.8,00:21.7
194,195,195,19.28419783,-99.14051117,0.468017578,0.020019531,0.822998047,24:58.9,00:21.8
195,196,196,19.28419783,-99.14051117,0.453613281,0.001708984,0.940673828,24:58.9,00:21.9
196,197,197,19.28419783,-99.14051117,0.479248047,-0.0546875,0.960449219,24:59.0,00:21.9
197,198,198,19.28419783,-99.14051117,0.2734375,0.055664063,0.818603516,24:59.1,00:22.0
198,199,199,19.28419783,-99.14051117,0.3984375,0.088378906,0.787597656,24:59.2,00:22.1
199,200,200,19.28419783,-99.14051117,0.468017578,0.127197266,0.853271484,24:59.2,00:22.1
200,201,201,19.28419783,-99.14051117,0.069824219,0.026855469,0.944335938,25:00.5,00:23.4
201,202,202,19.2842365,-99.14048917,0.093505859,-0.013671875,0.959960938,25:00.5,00:23.4
202,203,203,19.2842365,-99.14048917,0.163574219,-0.006835938,0.868164063,25:00.5,00:23.4
203,204,204,19.2842365,-99.14048917,0.121582031,0.019775391,0.952880859,25:00.5,00:23.5
204,205,205,19.2842365,-99.14048917,0.161376953,-0.037109375,0.919433594,25:00.5,00:23.5
205,206,206,19.2842365,-99.14048917,0.155273438,0.05859375,0.940917969,25:00.6,00:23.5
206,207,207,19.2842365,-99.14048917,0.162353516,-0.027832031,0.924316406,25:00.6,00:23.5
207,208,208,19.2842365,-99.14048917,0.141601563,-0.022460938,0.885742188,25:00.6,00:23.5
208,209,209,19.2842365,-99.14048917,0.114990234,-0.007080078,1.028320313,25:00.6,00:23.5
209,210,210,19.2842365,-99.14048917,0.158447266,0.020507813,0.948974609,25:00.6,00:23.6
210,211,211,19.28429083,-99.14047517,0.215576172,-0.010009766,0.853271484,25:00.8,00:23.7
211,212,212,19.28429083,-99.14047517,0.129882813,-0.00390625,0.841308594,25:00.8,00:23.7
212,213,213,19.28429083,-99.14047517,0.190673828,-0.004882813,0.840332031,25:00.9,00:23.8
213,214,214,19.28429083,-99.14047517,0.174560547,0.056396484,0.995849609,25:00.9,00:23.9
214,215,215,19.28429083,-99.14047517,0.086669922,-0.026123047,1.005859375,25:01.0,00:23.9
215,216,216,19.28429083,-99.14047517,0.103515625,0.051757813,0.933105469,25:01.1,00:24.0
216,217,217,19.28429083,-99.14047517,0.138916016,0.026123047,0.887451172,25:01.2,00:24.1
217,218,218,19.28429083,-99.14047517,0.131591797,0.033691406,0.917724609,25:01.4,00:24.3
218,219,219,19.28429083,-99.14047517,0.118408203,0.049316406,0.921142578,25:01.4,00:24.3
219,220,220,19.2843565,-99.14046267,0.146972656,-0.002441406,0.913330078,25:01.8,00:24.7
220,221,221,19.2843565,-99.14046267,0.135253906,0.011230469,1.009521484,25:01.8,00:24.7
221,222,222,19.2843565,-99.14046267,0.096435547,-0.078369141,0.843261719,25:01.9,00:24.8
222,223,223,19.2843565,-99.14046267,0.069580078,0.022705078,0.950683594,25:01.9,00:24.9
223,224,224,19.2843565,-99.14046267,0.147949219,-0.055664063,0.815185547,25:02.0,00:24.9
224,225,225,19.2843565,-99.14046267,0.218261719,-0.028076172,0.934326172,25:02.1,00:25.0
225,226,226,19.2843565,-99.14046267,0.10546875,0.061279297,0.869384766,25:03.3,00:26.3
226,227,227,19.2843565,-99.14046267,0.105957031,0.154052734,0.884765625,25:03.4,00:26.3
227,228,228,19.2843565,-99.14046267,0.047851563,0.139648438,0.979248047,25:03.4,00:26.3
228,229,229,19.28442983,-99.140451,0.050537109,0.261962891,0.949707031,25:03.4,00:26.3
229,230,230,19.28442983,-99.140451,0.040283203,0.210449219,0.857421875,25:03.4,00:26.3
230,231,231,19.28442983,-99.140451,0.105224609,0.117431641,0.810058594,25:03.4,00:26.3
231,232,232,19.28442983,-99.140451,0.176757813,0.053710938,0.786865234,25:03.4,00:26.4
232,233,233,19.28442983,-99.140451,0.031982422,0.112304688,0.911376953,25:03.4,00:26.4
233,234,234,19.28442983,-99.140451,-0.083984375,0.154541016,0.892089844,25:03.5,00:26.4
234,235,235,19.28442983,-99.140451,-0.036621094,0.095947266,0.979248047,25:03.5,00:26.4
235,236,236,19.28442983,-99.140451,0.438964844,0.098144531,0.8671875,25:03.5,00:26.4
236,237,237,19.28442983,-99.140451,0.354980469,0.061279297,0.696289063,25:03.5,00:26.4
237,238,238,19.28450933,-99.14044067,0.111816406,0.069091797,0.796875,25:03.8,00:26.7
238,239,239,19.28450933,-99.14044067,-0.1171875,0.122314453,1.014160156,25:03.8,00:26.7
239,240,240,19.28450933,-99.14044067,0.134765625,0.045654297,0.906494141,25:03.9,00:26.8
240,241,241,19.28450933,-99.14044067,0.197753906,-0.015136719,0.767578125,25:03.9,00:26.9
241,242,242,19.28450933,-99.14044067,0.017822266,0.055664063,1.040039063,25:04.0,00:26.9
242,243,243,19.28450933,-99.14044067,0.155761719,0.084960938,0.978759766,25:04.1,00:27.0
243,244,244,19.28450933,-99.14044067,0.167236328,0.017822266,0.888916016,25:04.2,00:27.1
244,245,245,19.28450933,-99.14044067,0.249267578,0.040771484,0.905761719,25:04.2,00:27.1
245,246,246,19.28450933,-99.14044067,0.255126953,-0.094238281,0.8828125,25:04.3,00:27.2
246,247,247,19.28458933,-99.14043333,-0.097412109,0.166503906,1.0,25:04.8,00:27.7
247,248,248,19.28458933,-99.14043333,0.099121094,-0.100830078,1.135742188,25:04.8,00:27.7
248,249,249,19.28458933,-99.14043333,0.138427734,0.051757813,0.96484375,25:04.9,00:27.8
249,250,250,19.28458933,-99.14043333,0.010986328,0.106445313,1.029052734,25:04.9,00:27.9
100,101,101,19.28464,-99.14060483,0.116943359,0.344238281,0.884033203,24:50.7,00:13.7
101,102,102,19.28464,-99.14060483,0.116455078,0.237792969,0.829101563,24:50.8,00:13.7
102,103,103,19.28456817,-99.1406145,0.178955078,0.267333984,0.833984375,24:50.8,00:13.7
103,104,104,19.28456817,-99.1406145,0.215332031,0.284179688,0.863037109,24:50.8,00:13.7
104,105,105,19.28456817,-99.1406145,0.271484375,0.322265625,0.845703125,24:50.8,00:13.7
105,106,106,19.28456817,-99.1406145,0.320800781,0.316650391,0.803710938,24:50.8,00:13.8
106,107,107,19.28456817,-99.1406145,0.315917969,0.2265625,0.861083984,24:50.8,00:13.8
107,108,108,19.28456817,-99.1406145,0.334228516,0.304199219,0.867431641,24:50.9,00:13.8
108,109,109,19.28456817,-99.1406145,0.279785156,0.249267578,0.771728516,24:50.9,00:13.8
109,110,110,19.28456817,-99.1406145,0.315185547,0.230224609,0.802978516,24:50.9,00:13.8
110,111,111,19.28456817,-99.1406145,0.193847656,0.259521484,0.898681641,24:50.9,00:13.8
111,112,112,19.28449933,-99.14062383,0.137939453,0.185302734,0.830566406,24:50.9,00:13.8
112,113,113,19.28449933,-99.14062383,0.133789063,0.217041016,0.904785156,24:50.9,00:13.9
113,114,114,19.28449933,-99.14062383,0.102539063,0.230712891,0.911621094,24:50.9,00:13.9
114,115,115,19.28449933,-99.14062383,0.141357422,0.172851563,0.847167969,24:51.0,00:13.9
115,116,116,19.28449933,-99.14062383,0.162597656,0.199462891,0.925048828,24:51.0,00:13.9
116,117,117,19.28449933,-99.14062383,0.165283203,0.131103516,0.854248047,24:51.0,00:13.9
117,118,118,19.28449933,-99.14062383,0.118408203,0.187011719,0.994384766,24:51.0,00:14.0
118,119,119,19.28449933,-99.14062383,0.116210938,0.159179688,0.804931641,24:51.0,00:14.0
119,120,120,19.28449933,-99.14062383,0.091308594,0.178466797,1.012939453,24:51.0,00:14.0
120,121,121,19.2844385,-99.14062917,0.089599609,0.182617188,0.993896484,24:51.1,00:14.0
121,122,122,19.2844385,-99.14062917,0.125,0.147216797,0.860595703,24:51.1,00:14.0
122,123,123,19.2844385,-99.14062917,0.048339844,0.160888672,0.954589844,24:51.1,00:14.0
123,124,124,19.2844385,-99.14062917,0.047119141,0.125976563,0.848632813,24:51.1,00:14.0
124,125,125,19.2844385,-99.14062917,0.070800781,0.195556641,0.953125,24:51.1,00:14.1
125,126,126,19.2844385,-99.14062917,-0.037109375,-0.320556641,1.250732422,24:52.8,00:15.7
126,127,127,19.2844385,-99.14062917,0.045654297,-0.022705078,1.090087891,24:52.8,00:15.7
127,128,128,19.2844385,-99.14062917,0.121337891,0.068603516,1.039550781,24:52.8,00:15.7
128,129,129,19.2844385,-99.14062917,-0.053466797,0.045654297,1.034667969,24:52.8,00:15.7
129,130,130,19.28438733,-99.14062817,0.194580078,0.171630859,1.016601563,24:52.8,00:15.8
130,131,131,19.28438733,-99.14062817,0.227050781,-0.047607422,0.959228516,24:52.8,00:15.8
131,132,132,19.28438733,-99.14062817,0.068115234,0.214355469,0.863525391,24:52.9,00:15.8
132,133,133,19.28438733,-99.14062817,0.164550781,0.254394531,0.83203125,24:52.9,00:15.8
133,134,134,19.28438733,-99.14062817,0.081054688,0.178466797,0.961425781,24:52.9,00:15.8
134,135,135,19.28438733,-99.14062817,0.033935547,0.275390625,0.827636719,24:52.9,00:15.8
135,136,136,19.28438733,-99.14062817,0.075683594,0.25,0.794677734,24:52.9,00:15.8
136,137,137,19.28438733,-99.14062817,0.046630859,0.130859375,0.773681641,24:52.9,00:15.9
137,138,138,19.28438733,-99.14062817,0.085693359,0.217041016,0.708251953,24:52.9,00:15.9
138,139,139,19.2843415,-99.14063283,0.127929688,0.227294922,0.652099609,24:53.0,00:15.9
139,140,140,19.2843415,-99.14063283,0.189453125,0.234375,0.683837891,24:53.0,00:15.9
140,141,141,19.2843415,-99.14063283,0.320068359,0.3125,0.623535156,24:53.0,00:15.9
141,142,142,19.2843415,-99.14063283,0.538574219,0.238037109,0.665283203,24:53.0,00:16.0
142,143,143,19.2843415,-99.14063283,0.294921875,0.302490234,0.691650391,24:53.0,00:16.0
143,144,144,19.2843415,-99.14063283,0.101318359,0.302001953,0.8828125,24:53.1,00:16.0
144,145,145,19.2843415,-99.14063283,-0.000732422,0.279296875,0.958984375,24:53.2,00:16.1
145,146,146,19.2843415,-99.14063283,0.072509766,0.363525391,0.881835938,24:53.2,00:16.2
146,147,147,19.2843415,-99.14063283,0.115478516,0.209472656,0.926757813,24:53.3,00:16.2
147,148,148,19.28430017,-99.140642,0.160400391,0.104492188,1.127685547,24:53.8,00:16.7
148,149,149,19.28430017,-99.140642,0.139404297,0.138427734,1.161376953,24:53.8,00:16.7
149,150,150,19.28430017,-99.140642,0.200683594,-0.004638672,1.105224609,24:53.9,00:16.8
150,151,151,19.28430017,-99.140642,0.055175781,0.149414063,0.926025391,24:55.4,00:18.3
151,152,152,19.28430017,-99.140642,0.062011719,0.130126953,0.970214844,24:55.4,00:18.4
152,153,153,19.28430017,-99.140642,0.060546875,0.12890625,1.002197266,24:55.4,00:18.4
153,154,154,19.28430017,-99.140642,0.107177734,0.102783203,0.941650391,24:55.4,00:18.4
154,155,155,19.28430017,-99.140642,0.129882813,0.191162109,0.942138672,24:55.5,00:18.4
155,156,156,19.28430017,-99.140642,0.151123047,0.184082031,0.961669922,24:55.5,00:18.4
156,157,157,19.284262,-99.1406375,0.105712891,0.112548828,0.978759766,24:55.5,00:18.5
157,158,158,19.284262,-99.1406375,0.068359375,0.096435547,0.954101563,24:55.5,00:18.5
158,159,159,19.284262,-99.1406375,0.016113281,0.069824219,0.9296875,24:55.6,00:18.5
159,160,160,19.284262,-99.1406375,0.046875,0.077636719,0.853515625,24:55.6,00:18.5
160,161,161,19.284262,-99.1406375,0.043212891,0.135986328,0.918701172,24:55.6,00:18.5
161,162,162,19.284262,-99.1406375,0.013183594,0.083007813,0.905517578,24:55.6,00:18.5
162,163,163,19.284262,-99.1406375,0.020751953,0.111572266,0.928466797,24:55.6,00:18.5
163,164,164,19.284262,-99.1406375,0.103027344,0.069335938,0.899169922,24:55.6,00:18.6
164,165,165,19.284262,-99.1406375,0.113525391,0.098876953,0.892089844,24:55.6,00:18.6
165,166,166,19.28423,-99.14061817,0.325927734,0.061279297,0.982421875,24:55.8,00:18.7
166,167,167,19.28423,-99.14061817,0.331298828,0.107910156,0.90234375,24:55.8,00:18.7
167,168,168,19.28423,-99.14061817,0.341308594,0.068359375,0.852294922,24:55.9,00:18.8
168,169,169,19.28423,-99.14061817,0.234863281,0.083496094,0.846435547,24:55.9,00:18.9
169,170,170,19.28423,-99.14061817,0.156494141,0.042480469,0.922363281,24:56.0,00:19.0
170,171,171,19.28423,-99.14061817,0.201416016,0.126220703,0.943115234,24:56.1,00:19.0
171,172,172,19.28423,-99.14061817,0.145751953,0.111816406,0.932617188,24:56.2,00:19.1
172,173,173,19.28423,-99.14061817,0.172363281,0.142578125,0.891357422,24:56.2,00:19.1
173,174,174,19.28423,-99.14061817,0.211181641,0.182861328,0.871337891,24:56.3,00:19.2
174,175,175,19.28420083,-99.14058767,0.288818359,0.182861328,0.842529297,24:56.8,00:19.7
175,176,176,19.28420083,-99.14058767,0.590332031,0.214355469,0.839111328,24:58.2,00:21.1
176,177,177,19.28420083,-99.14058767,0.526367188,0.340576172,0.915527344,24:58.2,00:21.1
177,178,178,19.28420083,-99.14058767,0.418701172,0.312011719,1.064941406,24:58.2,00:21.1
178,179,179,19.28420083,-99.14058767,0.404541016,0.312988281,1.04296875,24:58.2,00:21.2
179,180,180,19.28420083,-99.14058767,0.303710938,0.192382813,0.864990234,24:58.2,00:21.2
180,181,181,19.28420083,-99.14058767,0.347167969,0.190429688,0.950683594,24:58.3,00:21.2
181,182,182,19.28420083,-99.14058767,0.370117188,0.208496094,0.841796875,24:58.3,00:21.2
182,183,183,19.28420083,-99.14058767,0.310058594,0.162109375,0.922363281,24:58.3,00:21.2
183,184,184,19.28418433,-99.14055117,0.347412109,0.28515625,0.852294922,24:58.3,00:21.3
184,185,185,19.28418433,-99.14055117,0.501220703,0.218017578,0.910644531,24:58.3,00:21.3
185,186,186,19.28418433,-99.14055117,0.424804688,0.211914063,0.866943359,24:58.4,00:21.3
186,187,187,19.28418433,-99.14055117,0.401855469,0.113525391,0.883300781,24:58.4,00:21.3
187,188,188,19.28418433,-99.14055117,0.418701172,0.152587891,0.792236328,24:58.4,00:21.3
188,189,189,19.28418433,-99.14055117,0.482177734,0.202392578,0.916503906,24:58.4,00:21.3
189,190,190,19.28418433,-99.14055117,0.3671875,0.188232422,0.907470703,24:58.4,00:21.3
190,191,191,19.28418433,-99.14055117,0.431152344,0.186767578,0.820800781,24:58.4,00:21.4
191,192,192,19.28418433,-99.14055117,0.379638672,0.196777344,0.834960938,24:58.5,00:21.4
192,193,193,19.28419783,-99.14051117,0.321044922,-0.059814453,0.919921875,24:58.8,00:21.7
193,194,194,19.28419783,-99.14051117,0.688720703,0.150634766,0.595458984,24:58.8,00:21.7
194,195,195,19.28419783,-99.14051117,0.468017578,0.020019531,0.822998047,24:58.9,00:21.8
195,196,196,19.28419783,-99.14051117,0.453613281,0.001708984,0.940673828,24:58.9,00:21.9
196,197,197,19.28419783,-99.14051117,0.479248047,-0.0546875,0.960449219,24:59.0,00:21.9
197,198,198,19.28419783,-99.14051117,0.2734375,0.055664063,0.818603516,24:59.1,00:22.0
198,199,199,19.28419783,-99.14051117,0.3984375,0.088378906,0.787597656,24:59.2,00:22.1
199,200,200,19.28419783,-99.14051117,0.468017578,0.127197266,0.853271484,24:59.2,00:22.1
200,201,201,19.28419783,-99.14051117,0.069824219,0.026855469,0.944335938,25:00.5,00:23.4
201,202,202,19.2842365,-99.14048917,0.093505859,-0.013671875,0.959960938,25:00.5,00:23.4
202,203,203,19.2842365,-99.14048917,0.163574219,-0.006835938,0.868164063,25:00.5,00:23.4
203,204,204,19.2842365,-99.14048917,0.121582031,0.019775391,0.952880859,25:00.5,00:23.5
204,205,205,19.2842365,-99.14048917,0.161376953,-0.037109375,0.919433594,25:00.5,00:23.5
205,206,206,19.2842365,-99.14048917,0.155273438,0.05859375,0.940917969,25:00.6,00:23.5
206,207,207,19.2842365,-99.14048917,0.162353516,-0.027832031,0.924316406,25:00.6,00:23.5
207,208,208,19.2842365,-99.14048917,0.141601563,-0.022460938,0.885742188,25:00.6,00:23.5
208,209,209,19.2842365,-99.14048917,0.114990234,-0.007080078,1.028320313,25:00.6,00:23.5
209,210,210,19.2842365,-99.14048917,0.158447266,0.020507813,0.948974609,25:00.6,00:23.6
210,211,211,19.28429083,-99.14047517,0.215576172,-0.010009766,0.853271484,25:00.8,00:23.7
211,212,212,19.28429083,-99.14047517,0.129882813,-0.00390625,0.841308594,25:00.8,00:23.7
212,213,213,19.28429083,-99.14047517,0.190673828,-0.004882813,0.840332031,25:00.9,00:23.8
213,214,214,19.28429083,-99.14047517,0.174560547,0.056396484,0.995849609,25:00.9,00:23.9
214,215,215,19.28429083,-99.14047517,0.086669922,-0.026123047,1.005859375,25:01.0,00:23.9
215,216,216,19.28429083,-99.14047517,0.103515625,0.051757813,0.933105469,25:01.1,00:24.0
216,217,217,19.28429083,-99.14047517,0.138916016,0.026123047,0.887451172,25:01.2,00:24.1
217,218,218,19.28429083,-99.14047517,0.131591797,0.033691406,0.917724609,25:01.4,00:24.3
218,219,219,19.28429083,-99.14047517,0.118408203,0.049316406,0.921142578,25:01.4,00:24.3
219,220,220,19.2843565,-99.14046267,0.146972656,-0.002441406,0.913330078,25:01.8,00:24.7
220,221,221,19.2843565,-99.14046267,0.135253906,0.011230469,1.009521484,25:01.8,00:24.7
221,222,222,19.2843565,-99.14046267,0.096435547,-0.078369141,0.843261719,25:01.9,00:24.8
222,223,223,19.2843565,-99.14046267,0.069580078,0.022705078,0.950683594,25:01.9,00:24.9
223,224,224,19.2843565,-99.14046267,0.147949219,-0.055664063,0.815185547,25:02.0,00:24.9
224,225,225,19.2843565,-99.14046267,0.218261719,-0.028076172,0.934326172,25:02.1,00:25.0
225,226,226,19.2843565,-99.14046267,0.10546875,0.061279297,0.869384766,25:03.3,00:26.3
226,227,227,19.2843565,-99.14046267,0.105957031,0.154052734,0.884765625,25:03.4,00:26.3
227,228,228,19.2843565,-99.14046267,0.047851563,0.139648438,0.979248047,25:03.4,00:26.3
228,229,229,19.28442983,-99.140451,0.050537109,0.261962891,0.949707031,25:03.4,00:26.3
229,230,230,19.28442983,-99.140451,0.040283203,0.210449219,0.857421875,25:03.4,00:26.3
230,231,231,19.28442983,-99.140451,0.105224609,0.117431641,0.810058594,25:03.4,00:26.3
231,232,232,19.28442983,-99.140451,0.176757813,0.053710938,0.786865234,25:03.4,00:26.4
232,233,233,19.28442983,-99.140451,0.031982422,0.112304688,0.911376953,25:03.4,00:26.4
233,234,234,19.28442983,-99.140451,-0.083984375,0.154541016,0.892089844,25:03.5,00:26.4
234,235,235,19.28442983,-99.140451,-0.036621094,0.095947266,0.979248047,25:03.5,00:26.4
235,236,236,19.28442983,-99.140451,0.438964844,0.098144531,0.8671875,25:03.5,00:26.4
236,237,237,19.28442983,-99.140451,0.354980469,0.061279297,0.696289063,25:03.5,00:26.4
237,238,238,19.28450933,-99.14044067,0.111816406,0.069091797,0.796875,25:03.8,00:26.7
238,239,239,19.28450933,-99.14044067,-0.1171875,0.122314453,1.014160156,25:03.8,00:26.7
239,240,240,19.28450933,-99.14044067,0.134765625,0.045654297,0.906494141,25:03.9,00:26.8
240,241,241,19.28450933,-99.14044067,0.197753906,-0.015136719,0.767578125,25:03.9,00:26.9
241,242,242,19.28450933,-99.14044067,0.017822266,0.055664063,1.040039063,25:04.0,00:26.9
242,243,243,19.28450933,-99.14044067,0.155761719,0.084960938,0.978759766,25:04.1,00:27.0
243,244,244,19.28450933,-99.14044067,0.167236328,0.017822266,0.888916016,25:04.2,00:27.1
244,245,245,19.28450933,-99.14044067,0.249267578,0.040771484,0.905761719,25:04.2,00:27.1
245,246,246,19.28450933,-99.14044067,0.255126953,-0.094238281,0.8828125,25:04.3,00:27.2
246,247,247,19.28458933,-99.14043333,-0.097412109,0.166503906,1.0,25:04.8,00:27.7
247,248,248,19.28458933,-99.14043333,0.099121094,-0.100830078,1.135742188,25:04.8,00:27.7
248,249,249,19.28458933,-99.14043333,0.138427734,0.051757813,0.96484375,25:04.9,00:27.8
249,250,250,19.28458933,-99.14043333,0.010986328,0.106445313,1.029052734,25:04.9,00:27.9
194,195,195,19.28459117,-99.14060183,0.083251953,0.052490234,1.005615234,21:58.3,00:21.5
195,196,196,19.284533,-99.14060417,0.177001953,0.129150391,0.868652344,21:58.8,00:21.9
196,197,197,19.284533,-99.14060417,0.157714844,0.116943359,0.895019531,21:58.8,00:22.0
197,198,198,19.284533,-99.14060417,0.105957031,0.082763672,0.979003906,21:58.9,00:22.0
198,199,199,19.284533,-99.14060417,0.150146484,0.187988281,1.026855469,21:58.9,00:22.1
199,200,200,19.284533,-99.14060417,0.082519531,0.132324219,0.914794922,21:59.0,00:22.2
200,201,201,19.284533,-99.14060417,0.03515625,0.229736328,0.861572266,22:00.2,00:23.4
201,202,202,19.284533,-99.14060417,0.100585938,0.176025391,0.881347656,22:00.2,00:23.4
202,203,203,19.284533,-99.14060417,0.139892578,0.126953125,0.903808594,22:00.2,00:23.4
203,204,204,19.284533,-99.14060417,0.096923828,0.218261719,0.934326172,22:00.2,00:23.4
204,205,205,19.28447683,-99.14060983,0.154785156,0.197265625,0.873779297,22:00.2,00:23.4
205,206,206,19.28447683,-99.14060983,0.185058594,0.227294922,0.865234375,22:00.3,00:23.4
206,207,207,19.28447683,-99.14060983,0.310791016,0.302978516,0.872558594,22:00.3,00:23.5
207,208,208,19.28447683,-99.14060983,0.349609375,0.217773438,0.815673828,22:00.3,00:23.5
208,209,209,19.28447683,-99.14060983,0.336181641,0.194580078,0.869873047,22:00.3,00:23.5
209,210,210,19.28447683,-99.14060983,0.359130859,0.171142578,0.8046875,22:00.3,00:23.5
210,211,211,19.28447683,-99.14060983,0.271240234,0.178466797,0.882080078,22:00.4,00:23.5
211,212,212,19.28447683,-99.14060983,0.280761719,0.168457031,0.806884766,22:00.4,00:23.5
212,213,213,19.28447683,-99.14060983,0.239746094,0.197753906,0.874267578,22:00.4,00:23.6
213,214,214,19.2844255,-99.14061533,0.080810547,0.202636719,0.957763672,22:00.8,00:23.9
214,215,215,19.2844255,-99.14061533,0.127929688,0.246582031,0.884765625,22:00.8,00:24.0
215,216,216,19.2844255,-99.14061533,0.099365234,0.264892578,0.8828125,22:00.9,00:24.0
216,217,217,19.2844255,-99.14061533,0.164306641,0.225341797,0.844482422,22:00.9,00:24.1
217,218,218,19.2844255,-99.14061533,0.154052734,0.215820313,0.91796875,22:01.0,00:24.2
218,219,219,19.2844255,-99.14061533,0.203613281,0.226806641,0.899414063,22:01.1,00:24.3
219,220,220,19.2844255,-99.14061533,0.143066406,0.263427734,0.965087891,22:01.2,00:24.3
220,221,221,19.2844255,-99.14061533,0.064453125,0.304443359,0.948974609,22:01.2,00:24.4
221,222,222,19.2844255,-99.14061533,0.058349609,0.310058594,1.009277344,22:01.3,00:24.4
222,223,223,19.28438583,-99.140615,0.003417969,0.1328125,0.954589844,22:01.8,00:24.9
223,224,224,19.28438583,-99.140615,0.000244141,0.578125,1.094726563,22:01.8,00:25.0
224,225,225,19.28438583,-99.140615,0.189941406,0.474365234,1.178222656,22:01.9,00:25.0
225,226,226,19.28438583,-99.140615,0.280029297,0.173828125,0.841308594,22:03.2,00:26.4
226,227,227,19.28438583,-99.140615,0.324707031,0.150878906,0.911865234,22:03.2,00:26.4
227,228,228,19.28438583,-99.140615,0.328369141,0.112304688,0.819824219,22:03.2,00:26.4
228,229,229,19.28438583,-99.140615,0.333984375,0.151611328,0.808105469,22:03.2,00:26.4
229,230,230,19.28438583,-99.140615,0.365478516,0.174072266,0.845703125,22:03.2,00:26.4
230,231,231,19.28438583,-99.140615,0.391845703,0.178466797,0.833496094,22:03.3,00:26.4
231,232,232,19.28434967,-99.14062617,0.348144531,0.118408203,0.845458984,22:03.3,00:26.4
232,233,233,19.28434967,-99.14062617,0.350585938,0.116210938,0.807373047,22:03.3,00:26.5
233,234,234,19.28434967,-99.14062617,0.383544922,0.143554688,0.772216797,22:03.3,00:26.5
234,235,235,19.28434967,-99.14062617,0.187255859,0.095703125,0.796142578,22:03.6,00:26.7
235,236,236,19.28434967,-99.14062617,0.116943359,0.068115234,0.842285156,22:03.6,00:26.8
236,237,237,19.28434967,-99.14062617,0.088378906,0.1484375,0.895996094,22:03.6,00:26.8
237,238,238,19.28434967,-99.14062617,-0.023681641,-0.031494141,0.97265625,22:03.6,00:26.8
238,239,239,19.28434967,-99.14062617,0.047119141,0.009521484,0.873779297,22:03.6,00:26.8
239,240,240,19.28434967,-99.14062617,0.033935547,0.212402344,0.931884766,22:03.6,00:26.8
240,241,241,19.28431233,-99.14063417,0.155517578,-0.052978516,1.191894531,22:03.8,00:26.9
241,242,242,19.28431233,-99.14063417,0.294677734,-0.041259766,1.090820313,22:03.8,00:27.0
242,243,243,19.28431233,-99.14063417,0.309814453,0.075195313,0.938720703,22:03.9,00:27.0
243,244,244,19.28431233,-99.14063417,0.355224609,0.156494141,0.790039063,22:03.9,00:27.1
244,245,245,19.28431233,-99.14063417,0.348632813,0.180664063,0.748046875,22:04.0,00:27.2
245,246,246,19.28431233,-99.14063417,0.353271484,0.145263672,0.782958984,22:04.1,00:27.2
246,247,247,19.28431233,-99.14063417,0.310302734,0.116943359,0.876953125,22:04.2,00:27.3
247,248,248,19.28431233,-99.14063417,0.305908203,0.127197266,0.866943359,22:04.2,00:27.4
248,249,249,19.28431233,-99.14063417,0.251220703,0.113037109,0.911621094,22:04.3,00:27.4
249,250,250,19.2842765,-99.14063167,0.380615234,0.071044922,0.765625,22:04.8,00:27.9
250,251,251,19.2842765,-99.14063167,0.094970703,0.321044922,0.952392578,22:07.4,00:30.6
251,252,252,19.2842765,-99.14063167,0.081054688,0.321533203,0.914306641,22:07.5,00:30.6
252,253,253,19.2842765,-99.14063167,0.094482422,0.3046875,0.893798828,22:07.5,00:30.6
253,254,254,19.2842765,-99.14063167,0.109375,0.302734375,0.859375,22:07.5,00:30.7
254,255,255,19.2842765,-99.14063167,0.088623047,0.330566406,0.930908203,22:07.5,00:30.7
255,256,256,19.2842765,-99.14063167,0.084228516,0.324707031,0.907470703,22:07.5,00:30.7
256,257,257,19.2842765,-99.14063167,0.083496094,0.337646484,0.907470703,22:07.5,00:30.7
257,258,258,19.2842765,-99.14063167,0.086181641,0.310546875,0.904296875,22:07.5,00:30.7
258,259,259,19.28423983,-99.140624,0.079589844,0.318115234,0.889160156,22:07.6,00:30.7
259,260,260,19.28423983,-99.140624,0.062744141,0.334716797,0.831787109,22:07.6,00:30.7
260,261,261,19.28423983,-99.140624,0.023925781,0.318115234,0.873779297,22:07.6,00:30.8
261,262,262,19.28423983,-99.140624,0.065917969,0.302490234,0.896240234,22:07.6,00:30.8
262,263,263,19.28423983,-99.140624,0.066650391,0.305175781,0.807128906,22:07.6,00:30.8
263,264,264,19.28423983,-99.140624,0.064208984,0.313964844,0.828613281,22:07.6,00:30.8
264,265,265,19.28423983,-99.140624,0.091308594,0.313964844,0.912353516,22:07.7,00:30.8
265,266,266,19.28423983,-99.140624,0.06640625,0.314941406,0.866699219,22:07.7,00:30.9
266,267,267,19.28423983,-99.140624,0.095703125,0.311523438,0.830566406,22:07.7,00:30.9
267,268,268,19.28421483,-99.14060183,0.068115234,0.340576172,0.828369141,22:07.7,00:30.9
268,269,269,19.28421483,-99.14060183,0.098388672,0.315673828,0.888183594,22:07.7,00:30.9
269,270,270,19.28421483,-99.14060183,0.073486328,0.313964844,0.881591797,22:07.7,00:30.9
270,271,271,19.28421483,-99.14060183,0.083251953,0.337158203,0.896240234,22:07.8,00:30.9
271,272,272,19.28421483,-99.14060183,0.073730469,0.331298828,0.899902344,22:07.8,00:30.9
272,273,273,19.28421483,-99.14060183,0.082763672,0.321777344,0.893066406,22:07.8,00:31.0
273,274,274,19.28421483,-99.14060183,0.080566406,0.313232422,0.78125,22:07.8,00:31.0
274,275,275,19.28421483,-99.14060183,0.092285156,0.320068359,0.936523438,22:07.8,00:31.0
275,276,276,19.28421483,-99.14060183,0.161376953,0.150634766,0.897949219,22:10.1,00:33.2
276,277,277,19.28419717,-99.14057567,0.161621094,0.124755859,0.917236328,22:10.1,00:33.3
277,278,278,19.28419717,-99.14057567,0.155029297,0.12109375,0.890380859,22:10.1,00:33.3
278,279,279,19.28419717,-99.14057567,0.176025391,0.119384766,0.930908203,22:10.2,00:33.4
279,280,280,19.28419717,-99.14057567,0.189941406,0.122802734,0.854248047,22:10.2,00:33.4
280,281,281,19.28419717,-99.14057567,0.183105469,0.126708984,0.878417969,22:10.2,00:33.4
281,282,282,19.28419717,-99.14057567,0.125976563,0.139892578,0.936523438,22:10.3,00:33.5
282,283,283,19.28419717,-99.14057567,0.138671875,0.156005859,0.919921875,22:10.3,00:33.5
283,284,284,19.28419717,-99.14057567,0.134277344,0.094726563,0.921142578,22:10.3,00:33.5
284,285,285,19.28419717,-99.14057567,0.113769531,0.128662109,0.915283203,22:10.4,00:33.6
285,286,286,19.28418967,-99.14055917,0.123291016,0.124755859,0.937011719,22:10.4,00:33.6
286,287,287,19.28418967,-99.14055917,0.126953125,0.107666016,0.848388672,22:10.5,00:33.6
287,288,288,19.28418967,-99.14055917,0.155761719,0.139892578,0.897460938,22:10.5,00:33.7
288,289,289,19.28418967,-99.14055917,0.216308594,0.104248047,0.856445313,22:10.5,00:33.7
289,290,290,19.28418967,-99.14055917,0.175537109,0.135742188,0.919677734,22:10.6,00:33.7
290,291,291,19.28418967,-99.14055917,0.182373047,0.134765625,0.900634766,22:10.6,00:33.7
291,292,292,19.28418967,-99.14055917,0.174804688,0.122558594,0.875976563,22:10.6,00:33.8
292,293,293,19.28418967,-99.14055917,0.178710938,0.1328125,0.906494141,22:10.6,00:33.8
293,294,294,19.28418967,-99.14055917,0.189208984,0.134033203,0.8671875,22:10.6,00:33.8
294,295,295,19.284185,-99.140549,0.223144531,0.12109375,0.901123047,22:10.7,00:33.8
295,296,296,19.284185,-99.140549,0.203613281,0.121826172,0.938964844,22:10.7,00:33.8
296,297,297,19.284185,-99.140549,0.203369141,0.112548828,0.94921875,22:10.7,00:33.9
297,298,298,19.284185,-99.140549,0.231933594,0.138916016,0.935302734,22:10.7,00:33.9
298,299,299,19.284185,-99.140549,0.268310547,0.167236328,0.875976563,22:10.7,00:33.9
299,300,300,19.284185,-99.140549,0.218994141,0.203369141,0.927001953,22:10.8,00:33.9
300,301,301,19.284185,-99.140549,0.336669922,0.019775391,0.9453125,22:12.1,00:35.2
301,302,302,19.284185,-99.140549,0.33203125,-0.052246094,0.996582031,22:12.1,00:35.3
302,303,303,19.284185,-99.140549,0.329833984,-0.008789063,1.052490234,22:12.1,00:35.3
303,304,304,19.284184,-99.14054167,0.385009766,-0.023681641,0.958007813,22:12.1,00:35.3
304,305,305,19.284184,-99.14054167,0.429443359,-0.040039063,0.988525391,22:12.1,00:35.3
305,306,306,19.284184,-99.14054167,0.462890625,-0.031005859,0.889160156,22:12.2,00:35.3
306,307,307,19.284184,-99.14054167,0.422607422,0.0234375,0.864501953,22:12.2,00:35.3
307,308,308,19.284184,-99.14054167,0.311523438,-0.088867188,0.933349609,22:12.2,00:35.3
308,309,309,19.284184,-99.14054167,0.167236328,-0.119628906,1.055175781,22:12.2,00:35.4
309,310,310,19.284184,-99.14054167,0.185791016,-0.098632813,1.047363281,22:12.2,00:35.4
310,311,311,19.284184,-99.14054167,0.191894531,-0.022460938,0.924072266,22:12.2,00:35.4
311,312,312,19.284184,-99.14054167,0.308105469,-0.069335938,0.95703125,22:12.3,00:35.4
312,313,313,19.28418783,-99.1405265,0.254882813,0.001464844,0.893066406,22:12.3,00:35.4
313,314,314,19.28418783,-99.1405265,0.306640625,0.005126953,0.858398438,22:12.3,00:35.4
314,315,315,19.28418783,-99.1405265,0.353515625,0.030273438,0.785400391,22:12.3,00:35.5
315,316,316,19.28418783,-99.1405265,0.447753906,0.076171875,0.804199219,22:12.3,00:35.5
316,317,317,19.28418783,-99.1405265,0.383544922,0.021484375,0.872070313,22:12.3,00:35.5
317,318,318,19.28418783,-99.1405265,0.348388672,-0.061279297,0.961181641,22:12.3,00:35.5
318,319,319,19.28418783,-99.1405265,0.436035156,0.021484375,0.763427734,22:12.4,00:35.5
319,320,320,19.28418783,-99.1405265,0.402099609,0.046386719,0.864990234,22:12.4,00:35.5
320,321,321,19.28418783,-99.1405265,0.418212891,0.028076172,0.812011719,22:12.4,00:35.6
321,322,322,19.28420867,-99.140505,0.37109375,0.00390625,0.938476563,22:12.8,00:35.9
322,323,323,19.28420867,-99.140505,0.351318359,-0.029541016,0.918212891,22:12.8,00:36.0
323,324,324,19.28420867,-99.140505,0.378417969,-0.067138672,0.895263672,22:12.9,00:36.0
324,325,325,19.28420867,-99.140505,0.425048828,0.031982422,0.897949219,22:12.9,00:36.1
325,326,326,19.28420867,-99.140505,0.122802734,0.078613281,0.922119141,22:15.4,00:38.5
326,327,327,19.28420867,-99.140505,0.067138672,0.052734375,1.0,22:15.4,00:38.6
327,328,328,19.28420867,-99.140505,0.110107422,0.091796875,0.917724609,22:15.4,00:38.6
328,329,329,19.28420867,-99.140505,0.033935547,0.158203125,0.919189453,22:15.6,00:38.8
329,330,330,19.28420867,-99.140505,0.049560547,0.148681641,0.973876953,22:15.7,00:38.9
330,331,331,19.28425183,-99.140494,0.072021484,0.115966797,0.954589844,22:15.8,00:38.9
331,332,332,19.28425183,-99.140494,0.065429688,0.113525391,0.903076172,22:15.8,00:38.9
332,333,333,19.28425183,-99.140494,0.099121094,0.093994141,0.927246094,22:15.8,00:39.0
333,334,334,19.28425183,-99.140494,0.121826172,0.086669922,0.905273438,22:15.8,00:39.0
334,335,335,19.28425183,-99.140494,0.129150391,0.078857422,0.908691406,22:15.8,00:39.0
335,336,336,19.28425183,-99.140494,0.145019531,0.110595703,0.999755859,22:15.8,00:39.0
336,337,337,19.28425183,-99.140494,0.150634766,0.071533203,0.949951172,22:15.9,00:39.0
337,338,338,19.28425183,-99.140494,0.161621094,0.103271484,0.856445313,22:15.9,00:39.0
338,339,339,19.28425183,-99.140494,0.148925781,0.109863281,0.952636719,22:15.9,00:39.0
339,340,340,19.28430833,-99.140486,0.136962891,0.080078125,0.939208984,22:15.9,00:39.1
340,341,341,19.28430833,-99.140486,0.151123047,0.002685547,0.790771484,22:15.9,00:39.1
341,342,342,19.28430833,-99.140486,0.134521484,0.034667969,0.872070313,22:15.9,00:39.1
342,343,343,19.28430833,-99.140486,0.122070313,0.083740234,0.860595703,22:15.9,00:39.1
343,344,344,19.28430833,-99.140486,0.137939453,0.094726563,0.906738281,22:16.0,00:39.1
344,345,345,19.28430833,-99.140486,0.153320313,0.057128906,0.990478516,22:16.0,00:39.1
345,346,346,19.28430833,-99.140486,0.179199219,0.047119141,0.955322266,22:16.0,00:39.2
346,347,347,19.28430833,-99.140486,0.185302734,0.0,0.956298828,22:16.0,00:39.2
347,348,348,19.28430833,-99.140486,0.126220703,0.07421875,0.917236328,22:16.0,00:39.2
348,349,349,19.28436583,-99.14047633,0.080566406,0.089111328,0.952392578,22:16.0,00:39.2
349,350,350,19.28436583,-99.14047633,0.109619141,0.072509766,0.917724609,22:16.1,00:39.2
350,351,351,19.28436583,-99.14047633,0.146240234,0.154541016,0.895019531,22:17.3,00:40.5
351,352,352,19.28436583,-99.14047633,0.188964844,0.070800781,0.832519531,22:17.4,00:40.5
352,353,353,19.28436583,-99.14047633,0.122070313,0.153320313,0.964355469,22:17.4,00:40.5
353,354,354,19.28436583,-99.14047633,0.132324219,0.085449219,0.945800781,22:17.4,00:40.5
354,355,355,19.28436583,-99.14047633,0.151855469,0.016357422,0.843994141,22:17.4,00:40.6
355,356,356,19.28436583,-99.14047633,0.156738281,0.033203125,0.850341797,22:17.4,00:40.6
356,357,357,19.28436583,-99.14047633,0.083984375,0.009765625,0.911621094,22:17.4,00:40.6
357,358,358,19.28442417,-99.14046667,0.110839844,0.079101563,0.928466797,22:17.5,00:40.6
358,359,359,19.28442417,-99.14046667,0.096923828,0.045410156,0.852539063,22:17.5,00:40.6
359,360,360,19.28442417,-99.14046667,0.11328125,0.046630859,0.868896484,22:17.5,00:40.6
360,361,361,19.28442417,-99.14046667,0.029052734,0.072509766,0.935791016,22:17.5,00:40.7
361,362,362,19.28442417,-99.14046667,0.056396484,0.034423828,0.980957031,22:17.5,00:40.7
362,363,363,19.28442417,-99.14046667,0.118896484,0.0546875,0.909179688,22:17.5,00:40.7
363,364,364,19.28442417,-99.14046667,0.1875,0.139160156,0.87890625,22:17.6,00:40.7
364,365,365,19.28442417,-99.14046667,0.108398438,0.077392578,0.921142578,22:17.6,00:40.7
365,366,366,19.28442417,-99.14046667,0.081054688,0.087402344,0.89453125,22:17.6,00:40.8
366,367,367,19.2844825,-99.14045717,0.091308594,0.252441406,0.914306641,22:17.8,00:40.9
367,368,368,19.2844825,-99.14045717,0.150146484,0.110351563,0.768066406,22:17.8,00:41.0
368,369,369,19.2844825,-99.14045717,0.303222656,0.045654297,0.875732422,22:17.9,00:41.0
369,370,370,19.2844825,-99.14045717,0.098632813,0.069091797,0.944091797,22:17.9,00:41.1
370,371,371,19.2844825,-99.14045717,0.067138672,0.024414063,1.006347656,22:18.0,00:41.2
371,372,372,19.2844825,-99.14045717,0.053222656,0.028320313,0.982666016,22:18.1,00:41.2
372,373,373,19.2844825,-99.14045717,0.114990234,0.123535156,0.845458984,22:18.2,00:41.3
373,374,374,19.2844825,-99.14045717,0.154541016,0.113769531,0.856445313,22:18.2,00:41.4
374,375,375,19.2844825,-99.14045717,0.139892578,0.133300781,0.9765625,22:18.3,00:41.4
375,376,376,19.28454033,-99.14044867,0.279052734,0.080810547,0.770263672,22:19.4,00:42.6
376,377,377,19.28454033,-99.14044867,0.408935547,-0.336914063,0.798828125,22:19.5,00:42.6
377,378,378,19.28454033,-99.14044867,0.079101563,0.003173828,0.970947266,22:19.5,00:42.6
378,379,379,19.28454033,-99.14044867,-0.292480469,0.058837891,1.113525391,22:19.5,00:42.7
379,380,380,19.28454033,-99.14044867,-0.337402344,0.076171875,1.035644531,22:19.5,00:42.7
380,381,381,19.28454033,-99.14044867,-0.055664063,-0.253662109,0.770019531,22:19.5,00:42.7
381,382,382,19.28454033,-99.14044867,-0.139160156,-0.061279297,0.954833984,22:19.5,00:42.7
382,383,383,19.28454033,-99.14044867,-0.221191406,-0.016601563,1.094726563,22:19.6,00:42.7
383,384,384,19.28454033,-99.14044867,-0.103759766,0.218505859,0.81640625,22:19.6,00:42.7
384,385,385,19.28460217,-99.14044217,0.245849609,0.098144531,0.782958984,22:19.8,00:42.9
385,386,386,19.28460217,-99.14044217,0.304931641,0.044677734,0.725830078,22:19.8,00:43.0
386,387,387,19.28460217,-99.14044217,0.052490234,0.099121094,0.800537109,22:19.9,00:43.0
387,388,388,19.28460217,-99.14044217,0.121826172,-0.074462891,0.958984375,22:19.9,00:43.1
388,389,389,19.28460217,-99.14044217,0.136230469,0.015380859,0.921875,22:20.0,00:43.2
389,390,390,19.28460217,-99.14044217,0.141601563,0.081054688,0.861816406,22:20.1,00:43.2
390,391,391,19.28460217,-99.14044217,0.164794922,0.155761719,0.971191406,22:20.2,00:43.3
391,392,392,19.28460217,-99.14044217,0.126220703,0.000244141,0.8359375,22:20.2,00:43.4
392,393,393,19.28460217,-99.14044217,0.190673828,0.067382813,0.994873047,22:20.3,00:43.4
393,394,394,19.28466917,-99.1404335,0.042724609,0.053466797,0.877929688,22:20.8,00:43.9
194,195,195,19.28459117,-99.14060183,0.083251953,0.052490234,1.005615234,21:58.3,00:21.5
195,196,196,19.284533,-99.14060417,0.177001953,0.129150391,0.868652344,21:58.8,00:21.9
196,197,197,19.284533,-99.14060417,0.157714844,0.116943359,0.895019531,21:58.8,00:22.0
197,198,198,19.284533,-99.14060417,0.105957031,0.082763672,0.979003906,21:58.9,00:22.0
198,199,199,19.284533,-99.14060417,0.150146484,0.187988281,1.026855469,21:58.9,00:22.1
199,200,200,19.284533,-99.14060417,0.082519531,0.132324219,0.914794922,21:59.0,00:22.2
200,201,201,19.284533,-99.14060417,0.03515625,0.229736328,0.861572266,22:00.2,00:23.4
201,202,202,19.284533,-99.14060417,0.100585938,0.176025391,0.881347656,22:00.2,00:23.4
202,203,203,19.284533,-99.14060417,0.139892578,0.126953125,0.903808594,22:00.2,00:23.4
203,204,204,19.284533,-99.14060417,0.096923828,0.218261719,0.934326172,22:00.2,00:23.4
204,205,205,19.28447683,-99.14060983,0.154785156,0.197265625,0.873779297,22:00.2,00:23.4
205,206,206,19.28447683,-99.14060983,0.185058594,0.227294922,0.865234375,22:00.3,00:23.4
206,207,207,19.28447683,-99.14060983,0.310791016,0.302978516,0.872558594,22:00.3,00:23.5
207,208,208,19.28447683,-99.14060983,0.349609375,0.217773438,0.815673828,22:00.3,00:23.5
208,209,209,19.28447683,-99.14060983,0.336181641,0.194580078,0.869873047,22:00.3,00:23.5
209,210,210,19.28447683,-99.14060983,0.359130859,0.171142578,0.8046875,22:00.3,00:23.5
210,211,211,19.28447683,-99.14060983,0.271240234,0.178466797,0.882080078,22:00.4,00:23.5
211,212,212,19.28447683,-99.14060983,0.280761719,0.168457031,0.806884766,22:00.4,00:23.5
212,213,213,19.28447683,-99.14060983,0.239746094,0.197753906,0.874267578,22:00.4,00:23.6
213,214,214,19.2844255,-99.14061533,0.080810547,0.202636719,0.957763672,22:00.8,00:23.9
214,215,215,19.2844255,-99.14061533,0.127929688,0.246582031,0.884765625,22:00.8,00:24.0
215,216,216,19.2844255,-99.14061533,0.099365234,0.264892578,0.8828125,22:00.9,00:24.0
216,217,217,19.2844255,-99.14061533,0.164306641,0.225341797,0.844482422,22:00.9,00:24.1
217,218,218,19.2844255,-99.14061533,0.154052734,0.215820313,0.91796875,22:01.0,00:24.2
218,219,219,19.2844255,-99.14061533,0.203613281,0.226806641,0.899414063,22:01.1,00:24.3
219,220,220,19.2844255,-99.14061533,0.143066406,0.263427734,0.965087891,22:01.2,00:24.3
220,221,221,19.2844255,-99.14061533,0.064453125,0.304443359,0.948974609,22:01.2,00:24.4
221,222,222,19.2844255,-99.14061533,0.058349609,0.310058594,1.009277344,22:01.3,00:24.4
222,223,223,19.28438583,-99.140615,0.003417969,0.1328125,0.954589844,22:01.8,00:24.9
223,224,224,19.28438583,-99.140615,0.000244141,0.578125,1.094726563,22:01.8,00:25.0
224,225,225,19.28438583,-99.140615,0.189941406,0.474365234,1.178222656,22:01.9,00:25.0
225,226,226,19.28438583,-99.140615,0.280029297,0.173828125,0.841308594,22:03.2,00:26.4
226,227,227,19.28438583,-99.140615,0.324707031,0.150878906,0.911865234,22:03.2,00:26.4
227,228,228,19.28438583,-99.140615,0.328369141,0.112304688,0.819824219,22:03.2,00:26.4
228,229,229,19.28438583,-99.140615,0.333984375,0.151611328,0.808105469,22:03.2,00:26.4
229,230,230,19.28438583,-99.140615,0.365478516,0.174072266,0.845703125,22:03.2,00:26.4
230,231,231,19.28438583,-99.140615,0.391845703,0.178466797,0.833496094,22:03.3,00:26.4
231,232,232,19.28434967,-99.14062617,0.348144531,0.118408203,0.845458984,22:03.3,00:26.4
232,233,233,19.28434967,-99.14062617,0.350585938,0.116210938,0.807373047,22:03.3,00:26.5
233,234,234,19.28434967,-99.14062617,0.383544922,0.143554688,0.772216797,22:03.3,00:26.5
234,235,235,19.28434967,-99.14062617,0.187255859,0.095703125,0.796142578,22:03.6,00:26.7
235,236,236,19.28434967,-99.14062617,0.116943359,0.068115234,0.842285156,22:03.6,00:26.8
236,237,237,19.28434967,-99.14062617,0.088378906,0.1484375,0.895996094,22:03.6,00:26.8
237,238,238,19.28434967,-99.14062617,-0.023681641,-0.031494141,0.97265625,22:03.6,00:26.8
238,239,239,19.28434967,-99.14062617,0.047119141,0.009521484,0.873779297,22:03.6,00:26.8
239,240,240,19.28434967,-99.14062617,0.033935547,0.212402344,0.931884766,22:03.6,00:26.8
240,241,241,19.28431233,-99.14063417,0.155517578,-0.052978516,1.191894531,22:03.8,00:26.9
241,242,242,19.28431233,-99.14063417,0.294677734,-0.041259766,1.090820313,22:03.8,00:27.0
242,243,243,19.28431233,-99.14063417,0.309814453,0.075195313,0.938720703,22:03.9,00:27.0
243,244,244,19.28431233,-99.14063417,0.355224609,0.156494141,0.790039063,22:03.9,00:27.1
244,245,245,19.28431233,-99.14063417,0.348632813,0.180664063,0.748046875,22:04.0,00:27.2
245,246,246,19.28431233,-99.14063417,0.353271484,0.145263672,0.782958984,22:04.1,00:27.2
246,247,247,19.28431233,-99.14063417,0.310302734,0.116943359,0.876953125,22:04.2,00:27.3
247,248,248,19.28431233,-99.14063417,0.305908203,0.127197266,0.866943359,22:04.2,00:27.4
248,249,249,19.28431233,-99.14063417,0.251220703,0.113037109,0.911621094,22:04.3,00:27.4
249,250,250,19.2842765,-99.14063167,0.380615234,0.071044922,0.765625,22:04.8,00:27.9
250,251,251,19.2842765,-99.14063167,0.094970703,0.321044922,0.952392578,22:07.4,00:30.6
251,252,252,19.2842765,-99.14063167,0.081054688,0.321533203,0.914306641,22:07.5,00:30.6
252,253,253,19.2842765,-99.14063167,0.094482422,0.3046875,0.893798828,22:07.5,00:30.6
253,254,254,19.2842765,-99.14063167,0.109375,0.302734375,0.859375,22:07.5,00:30.7
254,255,255,19.2842765,-99.14063167,0.088623047,0.330566406,0.930908203,22:07.5,00:30.7
255,256,256,19.2842765,-99.14063167,0.084228516,0.324707031,0.907470703,22:07.5,00:30.7
256,257,257,19.2842765,-99.14063167,0.083496094,0.337646484,0.907470703,22:07.5,00:30.7
257,258,258,19.2842765,-99.14063167,0.086181641,0.310546875,0.904296875,22:07.5,00:30.7
258,259,259,19.28423983,-99.140624,0.079589844,0.318115234,0.889160156,22:07.6,00:30.7
259,260,260,19.28423983,-99.140624,0.062744141,0.334716797,0.831787109,22:07.6,00:30.7
260,261,261,19.28423983,-99.140624,0.023925781,0.318115234,0.873779297,22:07.6,00:30.8
261,262,262,19.28423983,-99.140624,0.065917969,0.302490234,0.896240234,22:07.6,00:30.8
262,263,263,19.28423983,-99.140624,0.066650391,0.305175781,0.807128906,22:07.6,00:30.8
263,264,264,19.28423983,-99.140624,0.064208984,0.313964844,0.828613281,22:07.6,00:30.8
264,265,265,19.28423983,-99.140624,0.091308594,0.313964844,0.912353516,22:07.7,00:30.8
265,266,266,19.28423983,-99.140624,0.06640625,0.314941406,0.866699219,22:07.7,00:30.9
266,267,267,19.28423983,-99.140624,0.095703125,0.311523438,0.830566406,22:07.7,00:30.9
267,268,268,19.28421483,-99.14060183,0.068115234,0.340576172,0.828369141,22:07.7,00:30.9
268,269,269,19.28421483,-99.14060183,0.098388672,0.315673828,0.888183594,22:07.7,00:30.9
269,270,270,19.28421483,-99.14060183,0.073486328,0.313964844,0.881591797,22:07.7,00:30.9
270,271,271,19.28421483,-99.14060183,0.083251953,0.337158203,0.896240234,22:07.8,00:30.9
271,272,272,19.28421483,-99.14060183,0.073730469,0.331298828,0.899902344,22:07.8,00:30.9
272,273,273,19.28421483,-99.14060183,0.082763672,0.321777344,0.893066406,22:07.8,00:31.0
273,274,274,19.28421483,-99.14060183,0.080566406,0.313232422,0.78125,22:07.8,00:31.0
274,275,275,19.28421483,-99.14060183,0.092285156,0.320068359,0.936523438,22:07.8,00:31.0
275,276,276,19.28421483,-99.14060183,0.161376953,0.150634766,0.897949219,22:10.1,00:33.2
276,277,277,19.28419717,-99.14057567,0.161621094,0.124755859,0.917236328,22:10.1,00:33.3
277,278,278,19.28419717,-99.14057567,0.155029297,0.12109375,0.890380859,22:10.1,00:33.3
278,279,279,19.28419717,-99.14057567,0.176025391,0.119384766,0.930908203,22:10.2,00:33.4
279,280,280,19.28419717,-99.14057567,0.189941406,0.122802734,0.854248047,22:10.2,00:33.4
280,281,281,19.28419717,-99.14057567,0.183105469,0.126708984,0.878417969,22:10.2,00:33.4
281,282,282,19.28419717,-99.14057567,0.125976563,0.139892578,0.936523438,22:10.3,00:33.5
282,283,283,19.28419717,-99.14057567,0.138671875,0.156005859,0.919921875,22:10.3,00:33.5
283,284,284,19.28419717,-99.14057567,0.134277344,0.094726563,0.921142578,22:10.3,00:33.5
284,285,285,19.28419717,-99.14057567,0.113769531,0.128662109,0.915283203,22:10.4,00:33.6
285,286,286,19.28418967,-99.14055917,0.123291016,0.124755859,0.937011719,22:10.4,00:33.6
286,287,287,19.28418967,-99.14055917,0.126953125,0.107666016,0.848388672,22:10.5,00:33.6
287,288,288,19.28418967,-99.14055917,0.155761719,0.139892578,0.897460938,22:10.5,00:33.7
288,289,289,19.28418967,-99.14055917,0.216308594,0.104248047,0.856445313,22:10.5,00:33.7
289,290,290,19.28418967,-99.14055917,0.175537109,0.135742188,0.919677734,22:10.6,00:33.7
290,291,291,19.28418967,-99.14055917,0.182373047,0.134765625,0.900634766,22:10.6,00:33.7
291,292,292,19.28418967,-99.14055917,0.174804688,0.122558594,0.875976563,22:10.6,00:33.8
292,293,293,19.28418967,-99.14055917,0.178710938,0.1328125,0.906494141,22:10.6,00:33.8
293,294,294,19.28418967,-99.14055917,0.189208984,0.134033203,0.8671875,22:10.6,00:33.8
75,76,76,19.28500667,-99.14054133,0.072021484,-0.066894531,0.958007813,26:32.0,00:09.7
76,77,77,19.28500667,-99.14054133,0.128417969,-0.074951172,0.964355469,26:32.0,00:09.7
77,78,78,19.28500667,-99.14054133,0.134521484,0.0859375,0.898925781,26:32.0,00:09.8
78,79,79,19.28500667,-99.14054133,0.118896484,0.082519531,0.801513672,26:32.0,00:09.8
79,80,80,19.28500667,-99.14054133,0.137695313,0.027832031,0.867919922,26:32.1,00:09.8
80,81,81,19.28500667,-99.14054133,0.136230469,0.009277344,0.813232422,26:32.1,00:09.8
81,82,82,19.28493433,-99.14054433,0.084228516,-0.029541016,1.024169922,26:32.1,00:09.8
82,83,83,19.28493433,-99.14054433,0.007324219,-0.025634766,0.934326172,26:32.1,00:09.8
83,84,84,19.28493433,-99.14054433,0.031982422,0.006835938,1.005859375,26:32.1,00:09.8
84,85,85,19.28493433,-99.14054433,0.102539063,0.043212891,0.818115234,26:32.1,00:09.9
85,86,86,19.28493433,-99.14054433,0.060791016,0.058349609,0.965820313,26:32.1,00:09.9
86,87,87,19.28493433,-99.14054433,0.014404297,0.023193359,0.934326172,26:32.2,00:09.9
87,88,88,19.28493433,-99.14054433,0.039550781,0.038818359,0.959472656,26:32.2,00:09.9
88,89,89,19.28493433,-99.14054433,0.056396484,-0.010986328,1.069580078,26:32.2,00:09.9
89,90,90,19.28493433,-99.14054433,0.152832031,-0.034667969,0.913574219,26:32.3,00:10.0
90,91,91,19.28486883,-99.14056117,0.151123047,0.055419922,1.009033203,26:32.8,00:10.5
91,92,92,19.28486883,-99.14056117,0.048339844,0.081542969,0.9765625,26:32.8,00:10.5
92,93,93,19.28486883,-99.14056117,0.065185547,0.056640625,0.950439453,26:32.9,00:10.6
93,94,94,19.28486883,-99.14056117,0.18359375,0.079589844,0.870117188,26:32.9,00:10.7
94,95,95,19.28486883,-99.14056117,0.133056641,0.119873047,0.919189453,26:33.0,00:10.7
95,96,96,19.28486883,-99.14056117,0.135498047,0.086181641,0.87890625,26:33.1,00:10.8
96,97,97,19.28486883,-99.14056117,0.133789063,0.090576172,1.058105469,26:33.2,00:10.9
97,98,98,19.28486883,-99.14056117,0.135009766,0.107177734,0.848388672,26:33.2,00:11.0
98,99,99,19.28486883,-99.14056117,0.099121094,0.071533203,0.914306641,26:33.3,00:11.0
99,100,100,19.284791,-99.14058067,-0.016113281,0.085449219,0.859863281,26:33.8,00:11.5
100,101,101,19.284791,-99.14058067,0.143066406,0.063720703,0.883544922,26:34.9,00:12.7
101,102,102,19.284791,-99.14058067,0.146240234,0.159912109,0.937744141,26:35.0,00:12.7
102,103,103,19.284791,-99.14058067,0.12890625,0.143310547,0.931884766,26:35.0,00:12.7
103,104,104,19.284791,-99.14058067,0.104736328,0.201904297,0.927001953,26:35.0,00:12.7
104,105,105,19.284791,-99.14058067,0.137451172,0.144042969,0.959228516,26:35.0,00:12.7
105,106,106,19.284791,-99.14058067,0.183349609,0.17578125,0.863525391,26:35.0,00:12.7
106,107,107,19.284791,-99.14058067,0.152587891,0.160644531,0.928710938,26:35.0,00:12.7
107,108,108,19.284791,-99.14058067,0.188964844,0.095703125,0.866455078,26:35.0,00:12.8
108,109,109,19.28470883,-99.140595,0.062011719,0.139160156,0.964599609,26:35.0,00:12.8
109,110,110,19.28470883,-99.140595,0.109619141,0.115478516,0.906005859,26:35.1,00:12.8
110,111,111,19.28470883,-99.140595,0.102294922,0.071533203,0.978271484,26:35.1,00:12.8
111,112,112,19.28470883,-99.140595,0.097167969,0.097412109,0.904052734,26:35.1,00:12.8
112,113,113,19.28470883,-99.140595,0.084228516,0.080810547,0.938232422,26:35.1,00:12.8
113,114,114,19.28470883,-99.140595,0.136962891,0.106689453,0.905273438,26:35.1,00:12.9
114,115,115,19.28470883,-99.140595,0.069580078,0.144775391,0.986083984,26:35.2,00:12.9
115,116,116,19.28470883,-99.140595,0.158691406,0.0625,0.938720703,26:35.2,00:12.9
116,117,117,19.28470883,-99.140595,0.160888672,0.111083984,0.944335938,26:35.3,00:13.0
117,118,118,19.28463233,-99.14060267,0.082275391,0.061767578,0.948242188,26:35.8,00:13.5
118,119,119,19.28463233,-99.14060267,0.047851563,0.076171875,0.806152344,26:35.8,00:13.5
119,120,120,19.28463233,-99.14060267,-0.041503906,0.155273438,0.882080078,26:35.9,00:13.6
120,121,121,19.28463233,-99.14060267,0.236572266,0.071533203,0.8515625,26:35.9,00:13.7
121,122,122,19.28463233,-99.14060267,0.192871094,0.041748047,0.945068359,26:36.0,00:13.7
122,123,123,19.28463233,-99.14060267,0.077880859,0.079345703,0.797851563,26:36.1,00:13.8
123,124,124,19.28463233,-99.14060267,0.147949219,0.127197266,0.864501953,26:36.2,00:13.9
124,125,125,19.28463233,-99.14060267,0.214111328,0.122314453,0.946289063,26:36.2,00:13.9
125,126,126,19.28463233,-99.14060267,0.07421875,0.056152344,0.843994141,26:37.8,00:15.5
126,127,127,19.28455483,-99.14060933,-0.229736328,0.2734375,1.0,26:37.8,00:15.5
127,128,128,19.28455483,-99.14060933,-0.434570313,0.461669922,1.142089844,26:37.8,00:15.5
128,129,129,19.28455483,-99.14060933,-0.943603516,0.661621094,1.181396484,26:37.8,00:15.6
129,130,130,19.28455483,-99.14060933,-0.743652344,0.274169922,1.098144531,26:37.8,00:15.6
130,131,131,19.28455483,-99.14060933,-0.399902344,-0.003173828,1.053222656,26:37.9,00:15.6
131,132,132,19.28455483,-99.14060933,-0.115234375,0.30078125,0.956298828,26:37.9,00:15.6
132,133,133,19.28455483,-99.14060933,0.041015625,0.480957031,1.029052734,26:37.9,00:15.6
133,134,134,19.28455483,-99.14060933,0.14453125,0.223876953,0.938720703,26:37.9,00:15.6
134,135,135,19.28455483,-99.14060933,0.288085938,0.242431641,0.912597656,26:37.9,00:15.6
135,136,136,19.28448433,-99.14062017,0.062744141,0.023925781,1.048828125,26:37.9,00:15.7
136,137,137,19.28448433,-99.14062017,0.101806641,0.011962891,1.006591797,26:38.0,00:15.7
137,138,138,19.28448433,-99.14062017,-0.008544922,0.075195313,1.044921875,26:38.0,00:15.7
138,139,139,19.28448433,-99.14062017,-0.077636719,0.079589844,1.021240234,26:38.0,00:15.7
139,140,140,19.28448433,-99.14062017,0.257324219,0.295898438,0.821777344,26:38.0,00:15.7
140,141,141,19.28448433,-99.14062017,0.326171875,0.238525391,0.712402344,26:38.1,00:15.8
141,142,142,19.28448433,-99.14062017,0.134277344,-0.000976563,0.936035156,26:38.2,00:15.9
142,143,143,19.28448433,-99.14062017,-0.148681641,-0.109130859,0.974609375,26:38.2,00:15.9
143,144,144,19.28448433,-99.14062017,-0.026855469,0.103515625,0.933349609,26:38.3,00:16.0
144,145,145,19.2844235,-99.14063267,0.106933594,0.195556641,1.007568359,26:38.8,00:16.5
145,146,146,19.2844235,-99.14063267,0.091308594,0.144775391,0.908691406,26:38.8,00:16.5
146,147,147,19.2844235,-99.14063267,0.143554688,0.245605469,0.796875,26:38.9,00:16.6
147,148,148,19.2844235,-99.14063267,0.099853516,0.208251953,0.945800781,26:38.9,00:16.7
148,149,149,19.2844235,-99.14063267,0.192138672,0.226074219,0.963134766,26:39.0,00:16.7
149,150,150,19.2844235,-99.14063267,0.177490234,0.227539063,0.892089844,26:39.1,00:16.8
150,151,151,19.2844235,-99.14063267,0.115722656,0.389404297,0.943603516,26:40.7,00:18.4
151,152,152,19.2844235,-99.14063267,0.167724609,0.325439453,0.963623047,26:40.7,00:18.4
152,153,153,19.2844235,-99.14063267,0.119628906,0.191650391,0.912109375,26:40.7,00:18.4
153,154,154,19.2843655,-99.14063483,0.131835938,0.184570313,0.863525391,26:40.7,00:18.4
154,155,155,19.2843655,-99.14063483,0.119628906,0.219726563,0.921875,26:40.7,00:18.4
155,156,156,19.2843655,-99.14063483,0.128173828,0.190673828,0.861083984,26:40.7,00:18.5
156,157,157,19.2843655,-99.14063483,0.209472656,0.083251953,0.880615234,26:40.8,00:18.5
157,158,158,19.2843655,-99.14063483,0.227539063,0.099609375,0.85546875,26:40.8,00:18.5
158,159,159,19.2843655,-99.14063483,0.303466797,0.065185547,0.867675781,26:40.8,00:18.6
159,160,160,19.2843655,-99.14063483,0.301513672,0.027832031,0.833007813,26:40.9,00:18.6
160,161,161,19.2843655,-99.14063483,0.28125,0.100830078,0.839355469,26:40.9,00:18.6
161,162,162,19.2843655,-99.14063483,0.236328125,0.08203125,0.811523438,26:40.9,00:18.6
162,163,163,19.28431617,-99.14064133,0.243652344,0.184570313,0.800292969,26:40.9,00:18.6
163,164,164,19.28431617,-99.14064133,0.268066406,0.173339844,0.69921875,26:40.9,00:18.6
164,165,165,19.28431617,-99.14064133,0.331542969,0.123779297,0.724365234,26:40.9,00:18.7
165,166,166,19.28431617,-99.14064133,0.433837891,0.111328125,0.6953125,26:40.9,00:18.7
166,167,167,19.28431617,-99.14064133,0.298828125,0.192626953,0.873046875,26:41.0,00:18.7
167,168,168,19.28431617,-99.14064133,0.184082031,-0.066162109,1.047119141,26:41.1,00:18.8
168,169,169,19.28431617,-99.14064133,0.223388672,-0.130371094,1.119628906,26:41.2,00:18.9
169,170,170,19.28431617,-99.14064133,0.317871094,0.008056641,1.055908203,26:41.2,00:18.9
170,171,171,19.28431617,-99.14064133,0.366699219,0.157226563,0.92578125,26:41.3,00:19.0
171,172,172,19.284273,-99.140641,0.412841797,0.163818359,0.943359375,26:41.8,00:19.5
172,173,173,19.284273,-99.140641,0.451904297,0.158935547,0.907714844,26:41.8,00:19.5
173,174,174,19.284273,-99.140641,0.507324219,0.155029297,0.770751953,26:41.9,00:19.6
174,175,175,19.284273,-99.140641,0.348388672,0.150390625,0.826416016,26:41.9,00:19.7
175,176,176,19.284273,-99.140641,0.193115234,0.194091797,0.933837891,26:43.6,00:21.3
176,177,177,19.284273,-99.140641,0.255126953,0.16796875,0.792236328,26:43.6,00:21.3
177,178,178,19.284273,-99.140641,0.232177734,0.185058594,0.905761719,26:43.6,00:21.4
178,179,179,19.284273,-99.140641,0.254150391,0.141601563,0.813964844,26:43.7,00:21.4
179,180,180,19.284273,-99.140641,0.25,0.133056641,0.848876953,26:43.7,00:21.4
180,181,181,19.28423533,-99.140626,0.216552734,0.130859375,0.825683594,26:43.7,00:21.4
181,182,182,19.28423533,-99.140626,0.163085938,0.138427734,0.861083984,26:43.7,00:21.4
182,183,183,19.28423533,-99.140626,0.157958984,0.116699219,0.826660156,26:43.7,00:21.4
183,184,184,19.28423533,-99.140626,0.165771484,0.133300781,0.820068359,26:43.7,00:21.5
184,185,185,19.28423533,-99.140626,0.161865234,0.11328125,0.831298828,26:43.7,00:21.5
185,186,186,19.28423533,-99.140626,0.157470703,0.126220703,0.861572266,26:43.8,00:21.5
186,187,187,19.28423533,-99.140626,0.160644531,0.100830078,0.881591797,26:43.8,00:21.5
187,188,188,19.28423533,-99.140626,0.145263672,0.123779297,0.819824219,26:43.8,00:21.5
188,189,189,19.28423533,-99.140626,0.125976563,0.12890625,0.8828125,26:43.8,00:21.5
189,190,190,19.28420817,-99.140601,0.12109375,0.105224609,0.924072266,26:43.8,00:21.6
190,191,191,19.28420817,-99.140601,0.131835938,0.062011719,0.822021484,26:43.9,00:21.6
191,192,192,19.28420817,-99.140601,0.077148438,0.109863281,0.868408203,26:43.9,00:21.6
192,193,193,19.28420817,-99.140601,0.110351563,0.115966797,0.859863281,26:43.9,00:21.7
193,194,194,19.28420817,-99.140601,0.158935547,0.144775391,0.893554688,26:44.0,00:21.7
194,195,195,19.28420817,-99.140601,0.237304688,0.178955078,0.952636719,26:44.1,00:21.8
195,196,196,19.28420817,-99.140601,0.252929688,0.155761719,0.940185547,26:44.2,00:21.9
196,197,197,19.28420817,-99.140601,0.22265625,0.143066406,0.905029297,26:44.2,00:21.9
197,198,198,19.28420817,-99.140601,0.23046875,0.130126953,0.783447266,26:44.3,00:22.0
198,199,199,19.28418883,-99.14056933,0.342041016,0.300537109,0.884765625,26:44.8,00:22.5
199,200,200,19.28418883,-99.14056933,0.379394531,0.33203125,0.8671875,26:44.8,00:22.5
200,201,201,19.28418883,-99.14056933,0.56640625,-0.038330078,0.855224609,26:46.1,00:23.9
201,202,202,19.28418883,-99.14056933,0.589599609,0.046386719,0.916259766,26:46.2,00:23.9
202,203,203,19.28418883,-99.14056933,0.633544922,-0.028564453,0.865722656,26:46.2,00:23.9
203,204,204,19.28418883,-99.14056933,0.615234375,0.006103516,0.830566406,26:46.2,00:23.9
204,205,205,19.28418883,-99.14056933,0.754394531,-0.061767578,0.880859375,26:46.2,00:23.9
205,206,206,19.28418883,-99.14056933,0.738769531,0.067382813,0.822265625,26:46.2,00:24.0
206,207,207,19.28418883,-99.14056933,0.709716797,0.004882813,0.804443359,26:46.3,00:24.0
207,208,208,19.2841855,-99.1405375,0.593505859,0.026123047,0.989013672,26:46.3,00:24.0
208,209,209,19.2841855,-99.1405375,0.567626953,-0.049316406,0.993652344,26:46.3,00:24.0
209,210,210,19.2841855,-99.1405375,0.545166016,-0.046875,0.980224609,26:46.3,00:24.0
210,211,211,19.2841855,-99.1405375,0.481201172,0.096923828,0.948974609,26:46.3,00:24.0
211,212,212,19.2841855,-99.1405375,0.606689453,0.001220703,0.890136719,26:46.3,00:24.1
212,213,213,19.2841855,-99.1405375,0.530517578,0.082519531,0.955810547,26:46.3,00:24.1
213,214,214,19.2841855,-99.1405375,0.464355469,0.109863281,0.963623047,26:46.4,00:24.1
214,215,215,19.2841855,-99.1405375,0.350585938,-0.063232422,1.024658203,26:46.4,00:24.1
215,216,216,19.2841855,-99.1405375,0.305175781,0.008544922,1.081054688,26:46.4,00:24.1
216,217,217,19.28420867,-99.14050967,0.38671875,-0.134277344,1.008056641,26:46.8,00:24.5
217,218,218,19.28420867,-99.14050967,0.404785156,-0.063964844,0.961914063,26:46.8,00:24.5
218,219,219,19.28420867,-99.14050967,0.447265625,0.011962891,0.860107422,26:46.9,00:24.6
219,220,220,19.28420867,-99.14050967,0.414550781,-0.05859375,0.891845703,26:46.9,00:24.7
220,221,221,19.28420867,-99.14050967,0.510742188,-0.05859375,0.857666016,26:47.0,00:24.7
221,222,222,19.28420867,-99.14050967,0.397460938,-0.116455078,0.900390625,26:47.1,00:24.8
222,223,223,19.28420867,-99.14050967,0.289794922,-0.010498047,0.996582031,26:47.2,00:24.9
223,224,224,19.28420867,-99.14050967,0.218994141,-0.139648438,0.908691406,26:47.2,00:24.9
224,225,225,19.28420867,-99.14050967,0.243164063,-0.135742188,0.8515625,26:47.3,00:25.0
225,226,226,19.28426,-99.14049533,0.154052734,0.12890625,0.980224609,26:48.5,00:26.3
226,227,227,19.28426,-99.14049533,0.164306641,0.109619141,0.887207031,26:48.5,00:26.3
227,228,228,19.28426,-99.14049533,0.127197266,0.120361328,0.905761719,26:48.6,00:26.3
228,229,229,19.28426,-99.14049533,0.102050781,0.090576172,0.906494141,26:48.6,00:26.3
229,230,230,19.28426,-99.14049533,0.101074219,0.079345703,0.979003906,26:48.6,00:26.3
230,231,231,19.28426,-99.14049533,0.115478516,0.092285156,0.909423828,26:48.6,00:26.3
231,232,232,19.28426,-99.14049533,0.172363281,0.034667969,0.901123047,26:48.6,00:26.3
232,233,233,19.28426,-99.14049533,0.104248047,0.062255859,0.924804688,26:48.6,00:26.4
233,234,234,19.28426,-99.14049533,0.063964844,0.115478516,0.935058594,26:48.7,00:26.4
234,235,235,19.284326,-99.14048583,0.154052734,-0.023925781,0.951660156,26:48.8,00:26.5
235,236,236,19.284326,-99.14048583,0.155273438,-0.045166016,0.836181641,26:48.8,00:26.5
236,237,237,19.284326,-99.14048583,0.120605469,-0.037597656,0.864990234,26:48.9,00:26.6
237,238,238,19.284326,-99.14048583,0.099853516,0.081542969,0.883056641,26:48.9,00:26.7
238,239,239,19.284326,-99.14048583,0.109130859,0.029541016,0.835205078,26:49.0,00:26.7
239,240,240,19.284326,-99.14048583,0.100341797,0.140380859,0.888916016,26:49.1,00:26.8
240,241,241,19.284326,-99.14048583,0.093017578,0.077148438,0.941162109,26:49.2,00:26.9
241,242,242,19.284326,-99.14048583,0.129394531,0.080566406,0.897460938,26:49.2,00:26.9
242,243,243,19.284326,-99.14048583,0.099609375,0.024169922,0.895996094,26:49.3,00:27.0
243,244,244,19.284397,-99.14047267,-0.030029297,-0.000732422,0.986572266,26:49.8,00:27.5
244,245,245,19.284397,-99.14047267,0.114990234,-0.080078125,0.943603516,26:49.8,00:27.5
245,246,246,19.284397,-99.14047267,0.125244141,-0.053710938,0.954345703,26:49.9,00:27.6
246,247,247,19.284397,-99.14047267,0.076416016,-0.044433594,0.964599609,26:49.9,00:27.7
247,248,248,19.284397,-99.14047267,0.230957031,0.109619141,0.862304688,26:50.0,00:27.7
248,249,249,19.284397,-99.14047267,0.053710938,0.052246094,0.865234375,26:50.1,00:27.8
249,250,250,19.284397,-99.14047267,0.138183594,-0.112060547,0.903808594,26:50.2,00:27.9
250,251,251,19.284397,-99.14047267,0.120849609,0.022460938,0.851806641,26:51.3,00:29.1
251,252,252,19.284397,-99.14047267,0.225341797,-0.044433594,0.765136719,26:51.4,00:29.1
252,253,253,19.28447483,-99.14046067,0.161132813,0.034667969,0.837646484,26:51.4,00:29.1
253,254,254,19.28447483,-99.14046067,0.191162109,0.111572266,0.818359375,26:51.4,00:29.1
254,255,255,19.28447483,-99.14046067,0.317382813,0.042236328,0.798095703,26:51.4,00:29.1
255,256,256,19.28447483,-99.14046067,0.1484375,0.169921875,0.811279297,26:51.4,00:29.2
256,257,257,19.28447483,-99.14046067,0.024414063,0.059570313,1.051513672,26:51.4,00:29.2
257,258,258,19.28447483,-99.14046067,-0.042480469,0.062255859,0.985839844,26:51.5,00:29.2
258,259,259,19.28447483,-99.14046067,0.117919922,0.138427734,0.788574219,26:51.5,00:29.2
259,260,260,19.28447483,-99.14046067,0.166748047,0.061523438,0.791503906,26:51.5,00:29.2
260,261,261,19.28447483,-99.14046067,0.188720703,0.040771484,0.943603516,26:51.5,00:29.3
261,262,262,19.284559,-99.14044533,0.506835938,-0.007324219,0.76953125,26:51.8,00:29.5
262,263,263,19.284559,-99.14044533,0.213623047,0.153808594,0.781738281,26:51.8,00:29.5
263,264,264,19.284559,-99.14044533,-0.031738281,0.185058594,0.88671875,26:51.9,00:29.6
264,265,265,19.284559,-99.14044533,0.044433594,0.168701172,0.912353516,26:51.9,00:29.7
265,266,266,19.284559,-99.14044533,0.323486328,0.192382813,0.786865234,26:52.0,00:29.7
266,267,267,19.284559,-99.14044533,0.083740234,0.098144531,0.833740234,26:52.1,00:29.8
267,268,268,19.284559,-99.14044533,-0.359130859,0.020751953,0.807861328,26:52.2,00:29.9
268,269,269,19.284559,-99.14044533,-0.066162109,-0.027832031,0.909179688,26:52.2,00:29.9
269,270,270,19.284559,-99.14044533,0.220703125,-0.098144531,1.080810547,26:52.3,00:30.0
270,271,271,19.28464883,-99.14043267,-0.013916016,0.086425781,0.913818359,26:52.8,00:30.5
271,272,272,19.28464883,-99.14043267,0.039306641,0.043945313,0.934082031,26:52.8,00:30.5
272,273,273,19.28464883,-99.14043267,0.127197266,0.008300781,0.970458984,26:52.9,00:30.6
273,274,274,19.28464883,-99.14043267,0.127685547,0.0625,1.025390625,26:53.0,00:30.7
274,275,275,19.28464883,-99.14043267,-0.001464844,0.034912109,0.942138672,26:53.0,00:30.8
75,76,76,19.28500667,-99.14054133,0.072021484,-0.066894531,0.958007813,26:32.0,00:09.7
76,77,77,19.28500667,-99.14054133,0.128417969,-0.074951172,0.964355469,26:32.0,00:09.7
77,78,78,19.28500667,-99.14054133,0.134521484,0.0859375,0.898925781,26:32.0,00:09.8
78,79,79,19.28500667,-99.14054133,0.118896484,0.082519531,0.801513672,26:32.0,00:09.8
79,80,80,19.28500667,-99.14054133,0.137695313,0.027832031,0.867919922,26:32.1,00:09.8
80,81,81,19.28500667,-99.14054133,0.136230469,0.009277344,0.813232422,26:32.1,00:09.8
81,82,82,19.28493433,-99.14054433,0.084228516,-0.029541016,1.024169922,26:32.1,00:09.8
82,83,83,19.28493433,-99.14054433,0.007324219,-0.025634766,0.934326172,26:32.1,00:09.8
83,84,84,19.28493433,-99.14054433,0.031982422,0.006835938,1.005859375,26:32.1,00:09.8
84,85,85,19.28493433,-99.14054433,0.102539063,0.043212891,0.818115234,26:32.1,00:09.9
85,86,86,19.28493433,-99.14054433,0.060791016,0.058349609,0.965820313,26:32.1,00:09.9
86,87,87,19.28493433,-99.14054433,0.014404297,0.023193359,0.934326172,26:32.2,00:09.9
87,88,88,19.28493433,-99.14054433,0.039550781,0.038818359,0.959472656,26:32.2,00:09.9
88,89,89,19.28493433,-99.14054433,0.056396484,-0.010986328,1.069580078,26:32.2,00:09.9
89,90,90,19.28493433,-99.14054433,0.152832031,-0.034667969,0.913574219,26:32.3,00:10.0
90,91,91,19.28486883,-99.14056117,0.151123047,0.055419922,1.009033203,26:32.8,00:10.5
91,92,92,19.28486883,-99.14056117,0.048339844,0.081542969,0.9765625,26:32.8,00:10.5
92,93,93,19.28486883,-99.14056117,0.065185547,0.056640625,0.950439453,26:32.9,00:10.6
93,94,94,19.28486883,-99.14056117,0.18359375,0.079589844,0.870117188,26:32.9,00:10.7
94,95,95,19.28486883,-99.14056117,0.133056641,0.119873047,0.919189453,26:33.0,00:10.7
95,96,96,19.28486883,-99.14056117,0.135498047,0.086181641,0.87890625,26:33.1,00:10.8
96,97,97,19.28486883,-99.14056117,0.133789063,0.090576172,1.058105469,26:33.2,00:10.9
97,98,98,19.28486883,-99.14056117,0.135009766,0.107177734,0.848388672,26:33.2,00:11.0
98,99,99,19.28486883,-99.14056117,0.099121094,0.071533203,0.914306641,26:33.3,00:11.0
99,100,100,19.284791,-99.14058067,-0.016113281,0.085449219,0.859863281,26:33.8,00:11.5
100,101,101,19.284791,-99.14058067,0.143066406,0.063720703,0.883544922,26:34.9,00:12.7
101,102,102,19.284791,-99.14058067,0.146240234,0.159912109,0.937744141,26:35.0,00:12.7
102,103,103,19.284791,-99.14058067,0.12890625,0.143310547,0.931884766,26:35.0,00:12.7
103,104,104,19.284791,-99.14058067,0.104736328,0.201904297,0.927001953,26:35.0,00:12.7
104,105,105,19.284791,-99.14058067,0.137451172,0.144042969,0.959228516,26:35.0,00:12.7
105,106,106,19.284791,-99.14058067,0.183349609,0.17578125,0.863525391,26:35.0,00:12.7
106,107,107,19.284791,-99.14058067,0.152587891,0.160644531,0.928710938,26:35.0,00:12.7
107,108,108,19.284791,-99.14058067,0.188964844,0.095703125,0.866455078,26:35.0,00:12.8
108,109,109,19.28470883,-99.140595,0.062011719,0.139160156,0.964599609,26:35.0,00:12.8
109,110,110,19.28470883,-99.140595,0.109619141,0.115478516,0.906005859,26:35.1,00:12.8
110,111,111,19.28470883,-99.140595,0.102294922,0.071533203,0.978271484,26:35.1,00:12.8
111,112,112,19.28470883,-99.140595,0.097167969,0.097412109,0.904052734,26:35.1,00:12.8
112,113,113,19.28470883,-99.140595,0.084228516,0.080810547,0.938232422,26:35.1,00:12.8
113,114,114,19.28470883,-99.140595,0.136962891,0.106689453,0.905273438,26:35.1,00:12.9
114,115,115,19.28470883,-99.140595,0.069580078,0.144775391,0.986083984,26:35.2,00:12.9
115,116,116,19.28470883,-99.140595,0.158691406,0.0625,0.938720703,26:35.2,00:12.9
116,117,117,19.28470883,-99.140595,0.160888672,0.111083984,0.944335938,26:35.3,00:13.0
117,118,118,19.28463233,-99.14060267,0.082275391,0.061767578,0.948242188,26:35.8,00:13.5
118,119,119,19.28463233,-99.14060267,0.047851563,0.076171875,0.806152344,26:35.8,00:13.5
119,120,120,19.28463233,-99.14060267,-0.041503906,0.155273438,0.882080078,26:35.9,00:13.6
120,121,121,19.28463233,-99.14060267,0.236572266,0.071533203,0.8515625,26:35.9,00:13.7
121,122,122,19.28463233,-99.14060267,0.192871094,0.041748047,0.945068359,26:36.0,00:13.7
122,123,123,19.28463233,-99.14060267,0.077880859,0.079345703,0.797851563,26:36.1,00:13.8
123,124,124,19.28463233,-99.14060267,0.147949219,0.127197266,0.864501953,26:36.2,00:13.9
124,125,125,19.28463233,-99.14060267,0.214111328,0.122314453,0.946289063,26:36.2,00:13.9
125,126,126,19.28463233,-99.14060267,0.07421875,0.056152344,0.843994141,26:37.8,00:15.5
126,127,127,19.28455483,-99.14060933,-0.229736328,0.2734375,1.0,26:37.8,00:15.5
127,128,128,19.28455483,-99.14060933,-0.434570313,0.461669922,1.142089844,26:37.8,00:15.5
128,129,129,19.28455483,-99.14060933,-0.943603516,0.661621094,1.181396484,26:37.8,00:15.6
129,130,130,19.28455483,-99.14060933,-0.743652344,0.274169922,1.098144531,26:37.8,00:15.6
130,131,131,19.28455483,-99.14060933,-0.399902344,-0.003173828,1.053222656,26:37.9,00:15.6
131,132,132,19.28455483,-99.14060933,-0.115234375,0.30078125,0.956298828,26:37.9,00:15.6
132,133,133,19.28455483,-99.14060933,0.041015625,0.480957031,1.029052734,26:37.9,00:15.6
133,134,134,19.28455483,-99.14060933,0.14453125,0.223876953,0.938720703,26:37.9,00:15.6
134,135,135,19.28455483,-99.14060933,0.288085938,0.242431641,0.912597656,26:37.9,00:15.6
135,136,136,19.28448433,-99.14062017,0.062744141,0.023925781,1.048828125,26:37.9,00:15.7
136,137,137,19.28448433,-99.14062017,0.101806641,0.011962891,1.006591797,26:38.0,00:15.7
137,138,138,19.28448433,-99.14062017,-0.008544922,0.075195313,1.044921875,26:38.0,00:15.7
138,139,139,19.28448433,-99.14062017,-0.077636719,0.079589844,1.021240234,26:38.0,00:15.7
139,140,140,19.28448433,-99.14062017,0.257324219,0.295898438,0.821777344,26:38.0,00:15.7
140,141,141,19.28448433,-99.14062017,0.326171875,0.238525391,0.712402344,26:38.1,00:15.8
141,142,142,19.28448433,-99.14062017,0.134277344,-0.000976563,0.936035156,26:38.2,00:15.9
142,143,143,19.28448433,-99.14062017,-0.148681641,-0.109130859,0.974609375,26:38.2,00:15.9
143,144,144,19.28448433,-99.14062017,-0.026855469,0.103515625,0.933349609,26:38.3,00:16.0
144,145,145,19.2844235,-99.14063267,0.106933594,0.195556641,1.007568359,26:38.8,00:16.5
145,146,146,19.2844235,-99.14063267,0.091308594,0.144775391,0.908691406,26:38.8,00:16.5
146,147,147,19.2844235,-99.14063267,0.143554688,0.245605469,0.796875,26:38.9,00:16.6
147,148,148,19.2844235,-99.14063267,0.099853516,0.208251953,0.945800781,26:38.9,00:16.7
148,149,149,19.2844235,-99.14063267,0.192138672,0.226074219,0.963134766,26:39.0,00:16.7
149,150,150,19.2844235,-99.14063267,0.177490234,0.227539063,0.892089844,26:39.1,00:16.8
150,151,151,19.2844235,-99.14063267,0.115722656,0.389404297,0.943603516,26:40.7,00:18.4
151,152,152,19.2844235,-99.14063267,0.167724609,0.325439453,0.963623047,26:40.7,00:18.4
152,153,153,19.2844235,-99.14063267,0.119628906,0.191650391,0.912109375,26:40.7,00:18.4
153,154,154,19.2843655,-99.14063483,0.131835938,0.184570313,0.863525391,26:40.7,00:18.4
154,155,155,19.2843655,-99.14063483,0.119628906,0.219726563,0.921875,26:40.7,00:18.4
155,156,156,19.2843655,-99.14063483,0.128173828,0.190673828,0.861083984,26:40.7,00:18.5
156,157,157,19.2843655,-99.14063483,0.209472656,0.083251953,0.880615234,26:40.8,00:18.5
157,158,158,19.2843655,-99.14063483,0.227539063,0.099609375,0.85546875,26:40.8,00:18.5
158,159,159,19.2843655,-99.14063483,0.303466797,0.065185547,0.867675781,26:40.8,00:18.6
159,160,160,19.2843655,-99.14063483,0.301513672,0.027832031,0.833007813,26:40.9,00:18.6
160,161,161,19.2843655,-99.14063483,0.28125,0.100830078,0.839355469,26:40.9,00:18.6
161,162,162,19.2843655,-99.14063483,0.236328125,0.08203125,0.811523438,26:40.9,00:18.6
162,163,163,19.28431617,-99.14064133,0.243652344,0.184570313,0.800292969,26:40.9,00:18.6
163,164,164,19.28431617,-99.14064133,0.268066406,0.173339844,0.69921875,26:40.9,00:18.6
164,165,165,19.28431617,-99.14064133,0.331542969,0.123779297,0.724365234,26:40.9,00:18.7
165,166,166,19.28431617,-99.14064133,0.433837891,0.111328125,0.6953125,26:40.9,00:18.7
166,167,167,19.28431617,-99.14064133,0.298828125,0.192626953,0.873046875,26:41.0,00:18.7
167,168,168,19.28431617,-99.14064133,0.184082031,-0.066162109,1.047119141,26:41.1,00:18.8
168,169,169,19.28431617,-99.14064133,0.223388672,-0.130371094,1.119628906,26:41.2,00:18.9
169,170,170,19.28431617,-99.14064133,0.317871094,0.008056641,1.055908203,26:41.2,00:18.9
170,171,171,19.28431617,-99.14064133,0.366699219,0.157226563,0.92578125,26:41.3,00:19.0
171,172,172,19.284273,-99.140641,0.412841797,0.163818359,0.943359375,26:41.8,00:19.5
172,173,173,19.284273,-99.140641,0.451904297,0.158935547,0.907714844,26:41.8,00:19.5
173,174,174,19.284273,-99.140641,0.507324219,0.155029297,0.770751953,26:41.9,00:19.6
174,175,175,19.284273,-99.140641,0.348388672,0.150390625,0.826416016,26:41.9,00:19.7
100,101,101,19.28464,-99.14060483,0.116943359,0.344238281,0.884033203,24:50.7,00:13.7
101,102,102,19.28464,-99.14060483,0.116455078,0.237792969,0.829101563,24:50.8,00:13.7
102,103,103,19.28456817,-99.1406145,0.178955078,0.267333984,0.833984375,24:50.8,00:13.7
103,104,104,19.28456817,-99.1406145,0.215332031,0.284179688,0.863037109,24:50.8,00:13.7
104,105,105,19.28456817,-99.1406145,0.271484375,0.322265625,0.845703125,24:50.8,00:13.7
105,106,106,19.28456817,-99.1406145,0.320800781,0.316650391,0.803710938,24:50.8,00:13.8
106,107,107,19.28456817,-99.1406145,0.315917969,0.2265625,0.861083984,24:50.8,00:13.8
107,108,108,19.28456817,-99.1406145,0.334228516,0.304199219,0.867431641,24:50.9,00:13.8
108,109,109,19.28456817,-99.1406145,0.279785156,0.249267578,0.771728516,24:50.9,00:13.8
109,110,110,19.28456817,-99.1406145,0.315185547,0.230224609,0.802978516,24:50.9,00:13.8
110,111,111,19.28456817,-99.1406145,0.193847656,0.259521484,0.898681641,24:50.9,00:13.8
111,112,112,19.28449933,-99.14062383,0.137939453,0.185302734,0.830566406,24:50.9,00:13.8
112,113,113,19.28449933,-99.14062383,0.133789063,0.217041016,0.904785156,24:50.9,00:13.9
113,114,114,19.28449933,-99.14062383,0.102539063,0.230712891,0.911621094,24:50.9,00:13.9
114,115,115,19.28449933,-99.14062383,0.141357422,0.172851563,0.847167969,24:51.0,00:13.9
115,116,116,19.28449933,-99.14062383,0.162597656,0.199462891,0.925048828,24:51.0,00:13.9
116,117,117,19.28449933,-99.14062383,0.165283203,0.131103516,0.854248047,24:51.0,00:13.9
117,118,118,19.28449933,-99.14062383,0.118408203,0.187011719,0.994384766,24:51.0,00:14.0
118,119,119,19.28449933,-99.14062383,0.116210938,0.159179688,0.804931641,24:51.0,00:14.0
119,120,120,19.28449933,-99.14062383,0.091308594,0.178466797,1.012939453,24:51.0,00:14.0
120,121,121,19.2844385,-99.14062917,0.089599609,0.182617188,0.993896484,24:51.1,00:14.0
121,122,122,19.2844385,-99.14062917,0.125,0.147216797,0.860595703,24:51.1,00:14.0
122,123,123,19.2844385,-99.14062917,0.048339844,0.160888672,0.954589844,24:51.1,00:14.0
123,124,124,19.2844385,-99.14062917,0.047119141,0.125976563,0.848632813,24:51.1,00:14.0
124,125,125,19.2844385,-99.14062917,0.070800781,0.195556641,0.953125,24:51.1,00:14.1
125,126,126,19.2844385,-99.14062917,-0.037109375,-0.320556641,1.250732422,24:52.8,00:15.7
126,127,127,19.2844385,-99.14062917,0.045654297,-0.022705078,1.090087891,24:52.8,00:15.7
127,128,128,19.2844385,-99.14062917,0.121337891,0.068603516,1.039550781,24:52.8,00:15.7
128,129,129,19.2844385,-99.14062917,-0.053466797,0.045654297,1.034667969,24:52.8,00:15.7
129,130,130,19.28438733,-99.14062817,0.194580078,0.171630859,1.016601563,24:52.8,00:15.8
130,131,131,19.28438733,-99.14062817,0.227050781,-0.047607422,0.959228516,24:52.8,00:15.8
131,132,132,19.28438733,-99.14062817,0.068115234,0.214355469,0.863525391,24:52.9,00:15.8
132,133,133,19.28438733,-99.14062817,0.164550781,0.254394531,0.83203125,24:52.9,00:15.8
133,134,134,19.28438733,-99.14062817,0.081054688,0.178466797,0.961425781,24:52.9,00:15.8
134,135,135,19.28438733,-99.14062817,0.033935547,0.275390625,0.827636719,24:52.9,00:15.8
135,136,136,19.28438733,-99.14062817,0.075683594,0.25,0.794677734,24:52.9,00:15.8
136,137,137,19.28438733,-99.14062817,0.046630859,0.130859375,0.773681641,24:52.9,00:15.9
137,138,138,19.28438733,-99.14062817,0.085693359,0.217041016,0.708251953,24:52.9,00:15.9
138,139,139,19.2843415,-99.14063283,0.127929688,0.227294922,0.652099609,24:53.0,00:15.9
139,140,140,19.2843415,-99.14063283,0.189453125,0.234375,0.683837891,24:53.0,00:15.9
140,141,141,19.2843415,-99.14063283,0.320068359,0.3125,0.623535156,24:53.0,00:15.9
141,142,142,19.2843415,-99.14063283,0.538574219,0.238037109,0.665283203,24:53.0,00:16.0
142,143,143,19.2843415,-99.14063283,0.294921875,0.302490234,0.691650391,24:53.0,00:16.0
143,144,144,19.2843415,-99.14063283,0.101318359,0.302001953,0.8828125,24:53.1,00:16.0
144,145,145,19.2843415,-99.14063283,-0.000732422,0.279296875,0.958984375,24:53.2,00:16.1
145,146,146,19.2843415,-99.14063283,0.072509766,0.363525391,0.881835938,24:53.2,00:16.2
146,147,147,19.2843415,-99.14063283,0.115478516,0.209472656,0.926757813,24:53.3,00:16.2
147,148,148,19.28430017,-99.140642,0.160400391,0.104492188,1.127685547,24:53.8,00:16.7
148,149,149,19.28430017,-99.140642,0.139404297,0.138427734,1.161376953,24:53.8,00:16.7
149,150,150,19.28430017,-99.140642,0.200683594,-0.004638672,1.105224609,24:53.9,00:16.8
150,151,151,19.28430017,-99.140642,0.055175781,0.149414063,0.926025391,24:55.4,00:18.3
151,152,152,19.28430017,-99.140642,0.062011719,0.130126953,0.970214844,24:55.4,00:18.4
152,153,153,19.28430017,-99.140642,0.060546875,0.12890625,1.002197266,24:55.4,00:18.4
153,154,154,19.28430017,-99.140642,0.107177734,0.102783203,0.941650391,24:55.4,00:18.4
154,155,155,19.28430017,-99.140642,0.129882813,0.191162109,0.942138672,24:55.5,00:18.4
155,156,156,19.28430017,-99.140642,0.151123047,0.184082031,0.961669922,24:55.5,00:18.4
156,157,157,19.284262,-99.1406375,0.105712891,0.112548828,0.978759766,24:55.5,00:18.5
157,158,158,19.284262,-99.1406375,0.068359375,0.096435547,0.954101563,24:55.5,00:18.5
158,159,159,19.284262,-99.1406375,0.016113281,0.069824219,0.9296875,24:55.6,00:18.5
159,160,160,19.284262,-99.1406375,0.046875,0.077636719,0.853515625,24:55.6,00:18.5
160,161,161,19.284262,-99.1406375,0.043212891,0.135986328,0.918701172,24:55.6,00:18.5
161,162,162,19.284262,-99.1406375,0.013183594,0.083007813,0.905517578,24:55.6,00:18.5
162,163,163,19.284262,-99.1406375,0.020751953,0.111572266,0.928466797,24:55.6,00:18.5
163,164,164,19.284262,-99.1406375,0.103027344,0.069335938,0.899169922,24:55.6,00:18.6
164,165,165,19.284262,-99.1406375,0.113525391,0.098876953,0.892089844,24:55.6,00:18.6
165,166,166,19.28423,-99.14061817,0.325927734,0.061279297,0.982421875,24:55.8,00:18.7
166,167,167,19.28423,-99.14061817,0.331298828,0.107910156,0.90234375,24:55.8,00:18.7
167,168,168,19.28423,-99.14061817,0.341308594,0.068359375,0.852294922,24:55.9,00:18.8
168,169,169,19.28423,-99.14061817,0.234863281,0.083496094,0.846435547,24:55.9,00:18.9
169,170,170,19.28423,-99.14061817,0.156494141,0.042480469,0.922363281,24:56.0,00:19.0
170,171,171,19.28423,-99.14061817,0.201416016,0.126220703,0.943115234,24:56.1,00:19.0
171,172,172,19.28423,-99.14061817,0.145751953,0.111816406,0.932617188,24:56.2,00:19.1
172,173,173,19.28423,-99.14061817,0.172363281,0.142578125,0.891357422,24:56.2,00:19.1
173,174,174,19.28423,-99.14061817,0.211181641,0.182861328,0.871337891,24:56.3,00:19.2
174,175,175,19.28420083,-99.14058767,0.288818359,0.182861328,0.842529297,24:56.8,00:19.7
175,176,176,19.28420083,-99.14058767,0.590332031,0.214355469,0.839111328,24:58.2,00:21.1
176,177,177,19.28420083,-99.14058767,0.526367188,0.340576172,0.915527344,24:58.2,00:21.1
177,178,178,19.28420083,-99.14058767,0.418701172,0.312011719,1.064941406,24:58.2,00:21.1
178,179,179,19.28420083,-99.14058767,0.404541016,0.312988281,1.04296875,24:58.2,00:21.2
179,180,180,19.28420083,-99.14058767,0.303710938,0.192382813,0.864990234,24:58.2,00:21.2
180,181,181,19.28420083,-99.14058767,0.347167969,0.190429688,0.950683594,24:58.3,00:21.2
181,182,182,19.28420083,-99.14058767,0.370117188,0.208496094,0.841796875,24:58.3,00:21.2
182,183,183,19.28420083,-99.14058767,0.310058594,0.162109375,0.922363281,24:58.3,00:21.2
183,184,184,19.28418433,-99.14055117,0.347412109,0.28515625,0.852294922,24:58.3,00:21.3
184,185,185,19.28418433,-99.14055117,0.501220703,0.218017578,0.910644531,24:58.3,00:21.3
185,186,186,19.28418433,-99.14055117,0.424804688,0.211914063,0.866943359,24:58.4,00:21.3
186,187,187,19.28418433,-99.14055117,0.401855469,0.113525391,0.883300781,24:58.4,00:21.3
187,188,188,19.28418433,-99.14055117,0.418701172,0.152587891,0.792236328,24:58.4,00:21.3
188,189,189,19.28418433,-99.14055117,0.482177734,0.202392578,0.916503906,24:58.4,00:21.3
189,190,190,19.28418433,-99.14055117,0.3671875,0.188232422,0.907470703,24:58.4,00:21.3
190,191,191,19.28418433,-99.14055117,0.431152344,0.186767578,0.820800781,24:58.4,00:21.4
191,192,192,19.28418433,-99.14055117,0.379638672,0.196777344,0.834960938,24:58.5,00:21.4
192,193,193,19.28419783,-99.14051117,0.321044922,-0.059814453,0.919921875,24:58.8,00:21.7
193,194,194,19.28419783,-99.14051117,0.688720703,0.150634766,0.595458984,24:58.8,00:21.7
194,195,195,19.28419783,-99.14051117,0.468017578,0.020019531,0.822998047,24:58.9,00:21.8
195,196,196,19.28419783,-99.14051117,0.453613281,0.001708984,0.940673828,24:58.9,00:21.9
196,197,197,19.28419783,-99.14051117,0.479248047,-0.0546875,0.960449219,24:59.0,00:21.9
197,198,198,19.28419783,-99.14051117,0.2734375,0.055664063,0.818603516,24:59.1,00:22.0
198,199,199,19.28419783,-99.14051117,0.3984375,0.088378906,0.787597656,24:59.2,00:22.1
199,200,200,19.28419783,-99.14051117,0.468017578,0.127197266,0.853271484,24:59.2,00:22.1
200,201,201,19.28419783,-99.14051117,0.069824219,0.026855469,0.944335938,25:00.5,00:23.4
201,202,202,19.2842365,-99.14048917,0.093505859,-0.013671875,0.959960938,25:00.5,00:23.4
202,203,203,19.2842365,-99.14048917,0.163574219,-0.006835938,0.868164063,25:00.5,00:23.4
203,204,204,19.2842365,-99.14048917,0.121582031,0.019775391,0.952880859,25:00.5,00:23.5
204,205,205,19.2842365,-99.14048917,0.161376953,-0.037109375,0.919433594,25:00.5,00:23.5
205,206,206,19.2842365,-99.14048917,0.155273438,0.05859375,0.940917969,25:00.6,00:23.5
206,207,207,19.2842365,-99.14048917,0.162353516,-0.027832031,0.924316406,25:00.6,00:23.5
207,208,208,19.2842365,-99.14048917,0.141601563,-0.022460938,0.885742188,25:00.6,00:23.5
208,209,209,19.2842365,-99.14048917,0.114990234,-0.007080078,1.028320313,25:00.6,00:23.5
209,210,210,19.2842365,-99.14048917,0.158447266,0.020507813,0.948974609,25:00.6,00:23.6
210,211,211,19.28429083,-99.14047517,0.215576172,-0.010009766,0.853271484,25:00.8,00:23.7
211,212,212,19.28429083,-99.14047517,0.129882813,-0.00390625,0.841308594,25:00.8,00:23.7
212,213,213,19.28429083,-99.14047517,0.190673828,-0.004882813,0.840332031,25:00.9,00:23.8
213,214,214,19.28429083,-99.14047517,0.174560547,0.056396484,0.995849609,25:00.9,00:23.9
214,215,215,19.28429083,-99.14047517,0.086669922,-0.026123047,1.005859375,25:01.0,00:23.9
215,216,216,19.28429083,-99.14047517,0.103515625,0.051757813,0.933105469,25:01.1,00:24.0
216,217,217,19.28429083,-99.14047517,0.138916016,0.026123047,0.887451172,25:01.2,00:24.1
217,218,218,19.28429083,-99.14047517,0.131591797,0.033691406,0.917724609,25:01.4,00:24.3
218,219,219,19.28429083,-99.14047517,0.118408203,0.049316406,0.921142578,25:01.4,00:24.3
219,220,220,19.2843565,-99.14046267,0.146972656,-0.002441406,0.913330078,25:01.8,00:24.7
220,221,221,19.2843565,-99.14046267,0.135253906,0.011230469,1.009521484,25:01.8,00:24.7
221,222,222,19.2843565,-99.14046267,0.096435547,-0.078369141,0.843261719,25:01.9,00:24.8
222,223,223,19.2843565,-99.14046267,0.069580078,0.022705078,0.950683594,25:01.9,00:24.9
223,224,224,19.2843565,-99.14046267,0.147949219,-0.055664063,0.815185547,25:02.0,00:24.9
224,225,225,19.2843565,-99.14046267,0.218261719,-0.028076172,0.934326172,25:02.1,00:25.0
225,226,226,19.2843565,-99.14046267,0.10546875,0.061279297,0.869384766,25:03.3,00:26.3
226,227,227,19.2843565,-99.14046267,0.105957031,0.154052734,0.884765625,25:03.4,00:26.3
227,228,228,19.2843565,-99.14046267,0.047851563,0.139648438,0.979248047,25:03.4,00:26.3
228,229,229,19.28442983,-99.140451,0.050537109,0.261962891,0.949707031,25:03.4,00:26.3
229,230,230,19.28442983,-99.140451,0.040283203,0.210449219,0.857421875,25:03.4,00:26.3
230,231,231,19.28442983,-99.140451,0.105224609,0.117431641,0.810058594,25:03.4,00:26.3
231,232,232,19.28442983,-99.140451,0.176757813,0.053710938,0.786865234,25:03.4,00:26.4
232,233,233,19.28442983,-99.140451,0.031982422,0.112304688,0.911376953,25:03.4,00:26.4
233,234,234,19.28442983,-99.140451,-0.083984375,0.154541016,0.892089844,25:03.5,00:26.4
234,235,235,19.28442983,-99.140451,-0.036621094,0.095947266,0.979248047,25:03.5,00:26.4
235,236,236,19.28442983,-99.140451,0.438964844,0.098144531,0.8671875,25:03.5,00:26.4
236,237,237,19.28442983,-99.140451,0.354980469,0.061279297,0.696289063,25:03.5,00:26.4
237,238,238,19.28450933,-99.14044067,0.111816406,0.069091797,0.796875,25:03.8,00:26.7
238,239,239,19.28450933,-99.14044067,-0.1171875,0.122314453,1.014160156,25:03.8,00:26.7
239,240,240,19.28450933,-99.14044067,0.134765625,0.045654297,0.906494141,25:03.9,00:26.8
240,241,241,19.28450933,-99.14044067,0.197753906,-0.015136719,0.767578125,25:03.9,00:26.9
241,242,242,19.28450933,-99.14044067,0.017822266,0.055664063,1.040039063,25:04.0,00:26.9
242,243,243,19.28450933,-99.14044067,0.155761719,0.084960938,0.978759766,25:04.1,00:27.0
243,244,244,19.28450933,-99.14044067,0.167236328,0.017822266,0.888916016,25:04.2,00:27.1
244,245,245,19.28450933,-99.14044067,0.249267578,0.040771484,0.905761719,25:04.2,00:27.1
245,246,246,19.28450933,-99.14044067,0.255126953,-0.094238281,0.8828125,25:04.3,00:27.2
246,247,247,19.28458933,-99.14043333,-0.097412109,0.166503906,1.0,25:04.8,00:27.7
247,248,248,19.28458933,-99.14043333,0.099121094,-0.100830078,1.135742188,25:04.8,00:27.7
248,249,249,19.28458933,-99.14043333,0.138427734,0.051757813,0.96484375,25:04.9,00:27.8
249,250,250,19.28458933,-99.14043333,0.010986328,0.106445313,1.029052734,25:04.9,00:27.9
100,101,101,19.28464,-99.14060483,0.116943359,0.344238281,0.884033203,24:50.7,00:13.7
101,102,102,19.28464,-99.14060483,0.116455078,0.237792969,0.829101563,24:50.8,00:13.7
102,103,103,19.28456817,-99.1406145,0.178955078,0.267333984,0.833984375,24:50.8,00:13.7
103,104,104,19.28456817,-99.1406145,0.215332031,0.284179688,0.863037109,24:50.8,00:13.7
104,105,105,19.28456817,-99.1406145,0.271484375,0.322265625,0.845703125,24:50.8,00:13.7
105,106,106,19.28456817,-99.1406145,0.320800781,0.316650391,0.803710938,24:50.8,00:13.8
106,107,107,19.28456817,-99.1406145,0.315917969,0.2265625,0.861083984,24:50.8,00:13.8
107,108,108,19.28456817,-99.1406145,0.334228516,0.304199219,0.867431641,24:50.9,00:13.8
108,109,109,19.28456817,-99.1406145,0.279785156,0.249267578,0.771728516,24:50.9,00:13.8
109,110,110,19.28456817,-99.1406145,0.315185547,0.230224609,0.802978516,24:50.9,00:13.8
110,111,111,19.28456817,-99.1406145,0.193847656,0.259521484,0.898681641,24:50.9,00:13.8
111,112,112,19.28449933,-99.14062383,0.137939453,0.185302734,0.830566406,24:50.9,00:13.8
112,113,113,19.28449933,-99.14062383,0.133789063,0.217041016,0.904785156,24:50.9,00:13.9
113,114,114,19.28449933,-99.14062383,0.102539063,0.230712891,0.911621094,24:50.9,00:13.9
114,115,115,19.28449933,-99.14062383,0.141357422,0.172851563,0.847167969,24:51.0,00:13.9
115,116,116,19.28449933,-99.14062383,0.162597656,0.199462891,0.925048828,24:51.0,00:13.9
116,117,117,19.28449933,-99.14062383,0.165283203,0.131103516,0.854248047,24:51.0,00:13.9
